Sun Nuclear Corporation
PC Electrometer - Log file


============== new measurement ==============

Application version: 1.3.4.31615
Logging started: 8-27-2019 11:44 am
PC Electrometer S/N: 96414013
Background compensation: YES, Background values: Input1: 0.117 pA, Input2: 0.118 pA
Input 1: Corrected Quantity Transform (pC/Count): 0.0157815, Laboratory Calibration:   1.0010
Input 2: Corrected Quantity Transform (pC/Count): 0.0156905, Laboratory Calibration:   1.0010
Bias Voltage: +300 V, Beam Type: Continuous
Detector1: none, S/N: none
Detector2: none, S/N: none
Time[s]	Charge1[pC]	Curnt1[pA]	Charge2[pC]	Curnt2[pA]	Temp[C]	Press[kPa]	Pulses
0.5000	0.0521	0.1042	-0.0120	-0.0241	29.4995	102.5708	0
1.0000	0.0568	0.0095	0.0544	0.1328	29.5079	102.5793	0
1.5000	0.0458	-0.0221	-0.0047	-0.1182	29.5109	102.5844	0
2.0000	0.0505	0.0095	0.0146	0.0387	29.5064	102.5708	0
2.5000	-0.0079	-0.1168	0.0340	0.0387	29.5247	102.5844	0
3.0000	0.0758	0.1673	-0.0251	-0.1182	29.5117	102.5742	0
3.5000	0.0805	0.0095	-0.0058	0.0387	29.5232	102.5776	0
4.0000	0.0694	-0.0221	-0.0178	-0.0241	29.5247	102.5640	0
4.5000	0.0900	0.0410	0.0173	0.0701	29.5209	102.5742	0
5.0000	0.1263	0.0726	0.0209	0.0073	29.5224	102.5776	0
5.5000	0.0521	-0.1483	-0.0382	-0.1182	29.5315	102.5810	0
6.0000	0.0726	0.0410	0.0282	0.1328	29.5224	102.5691	0
6.5000	0.0931	0.0410	0.0005	-0.0554	29.5354	102.5912	0
7.0000	0.1136	0.0410	0.0199	0.0387	29.5392	102.5827	0
7.5000	0.1026	-0.0221	0.0235	0.0073	29.5308	102.5708	0
8.0000	0.1231	0.0410	-0.0513	-0.1496	29.5361	102.5657	0
8.5000	0.0963	-0.0537	-0.0319	0.0387	29.5392	102.5793	0
9.0000	0.1168	0.0410	0.0031	0.0701	29.5384	102.5657	0
9.5000	0.0584	-0.1168	0.0225	0.0387	29.5392	102.5657	0
10.0000	0.1263	0.1357	0.0262	0.0073	29.5399	102.5861	0
10.5000	0.1152	-0.0221	0.0141	-0.0241	29.5384	102.5793	0
11.0000	0.1357	0.0410	0.0178	0.0073	29.5399	102.5657	0
11.5000	0.1562	0.0410	0.0371	0.0387	29.5384	102.5708	0
12.0000	0.1294	-0.0537	-0.0220	-0.1182	29.5392	102.5725	0
12.5000	0.1499	0.0410	-0.0183	0.0073	29.5392	102.5759	0
13.0000	0.1547	0.0095	-0.0303	-0.0241	29.5415	102.5759	0
13.5000	0.1752	0.0410	0.0047	0.0701	29.5407	102.5708	0
14.0000	0.2115	0.0726	-0.0073	-0.0241	29.5399	102.5810	0
14.5000	0.1373	-0.1483	-0.0037	0.0073	29.5392	102.5759	0
15.0000	0.1894	0.1042	0.0000	0.0073	29.5399	102.5759	0
15.5000	0.1468	-0.0852	0.0037	0.0073	29.5392	102.5810	0
16.0000	0.1988	0.1042	-0.0397	-0.0868	29.5407	102.5759	0
16.5000	0.2351	0.0726	0.0110	0.1015	29.5407	102.5708	0
17.0000	0.1925	-0.0852	-0.0481	-0.1182	29.5407	102.5657	0
17.5000	0.2288	0.0726	0.0183	0.1328	29.5399	102.5776	0
18.0000	0.2493	0.0410	-0.0094	-0.0554	29.5407	102.5725	0
18.5000	0.1752	-0.1483	0.0099	0.0387	29.5399	102.5725	0
19.0000	0.2115	0.0726	-0.0021	-0.0241	29.5415	102.5708	0
19.5000	0.2320	0.0410	-0.0141	-0.0241	29.5407	102.5759	0
20.0000	0.1736	-0.1168	-0.0575	-0.0868	29.5415	102.5759	0
20.5000	0.2730	0.1988	0.0403	0.1956	29.5407	102.5691	0
21.0000	0.2935	0.0410	-0.0188	-0.1182	29.5415	102.5861	0
21.5000	0.2667	-0.0537	0.0162	0.0701	29.5407	102.5725	0
22.0000	0.3030	0.0726	0.0199	0.0073	29.5407	102.5725	0
22.5000	0.2762	-0.0537	-0.0078	-0.0554	29.5407	102.5691	0
23.0000	0.2651	-0.0221	-0.0199	-0.0241	29.5415	102.5725	0
23.5000	0.2699	0.0095	-0.0162	0.0073	29.5407	102.5742	0
24.0000	0.2904	0.0410	-0.0282	-0.0241	29.5415	102.5793	0
24.5000	0.2951	0.0095	0.0068	0.0701	29.5415	102.5759	0
25.0000	0.2683	-0.0537	-0.0052	-0.0241	29.5407	102.5590	0
25.5000	0.2888	0.0410	-0.0016	0.0073	29.5407	102.5708	0
26.0000	0.3251	0.0726	0.0021	0.0073	29.5407	102.5742	0
26.5000	0.2983	-0.0537	-0.0256	-0.0554	29.5415	102.5895	0
27.0000	0.3346	0.0726	-0.0220	0.0073	29.5415	102.5810	0
27.5000	0.2920	-0.0852	-0.0340	-0.0241	29.5407	102.5759	0
28.0000	0.3283	0.0726	-0.0146	0.0387	29.5415	102.5776	0
28.5000	0.3330	0.0095	-0.0267	-0.0241	29.5415	102.5759	0
29.0000	0.2904	-0.0852	-0.0230	0.0073	29.5407	102.5691	0
29.5000	0.3740	0.1673	-0.0194	0.0073	29.5415	102.5725	0
30.0000	0.3788	0.0095	-0.0157	0.0073	29.5415	102.5793	0
30.5000	0.3993	0.0410	-0.0434	-0.0554	29.5415	102.5759	0
31.0000	0.3882	-0.0221	-0.0397	0.0073	29.5415	102.5674	0
31.5000	0.3298	-0.1168	-0.0518	-0.0241	29.5407	102.5759	0
32.0000	0.3819	0.1042	-0.0167	0.0701	29.5415	102.5725	0
32.5000	0.3709	-0.0221	-0.0288	-0.0241	29.5415	102.5674	0
33.0000	0.4229	0.1042	-0.0094	0.0387	29.5415	102.5810	0
33.5000	0.3488	-0.1483	-0.0371	-0.0554	29.5415	102.5640	0
34.0000	0.3851	0.0726	-0.0492	-0.0241	29.5407	102.5742	0
34.5000	0.4371	0.1042	-0.0298	0.0387	29.5415	102.5827	0
35.0000	0.4103	-0.0537	-0.0418	-0.0241	29.5415	102.5810	0
35.5000	0.4151	0.0095	-0.0382	0.0073	29.5415	102.5742	0
36.0000	0.4198	0.0095	-0.0502	-0.0241	29.5415	102.5657	0
36.5000	0.4087	-0.0221	-0.0152	0.0701	29.5415	102.5708	0
37.0000	0.4450	0.0726	-0.0586	-0.0868	29.5415	102.5725	0
37.5000	0.4498	0.0095	-0.0235	0.0701	29.5415	102.5742	0
38.0000	0.4229	-0.0537	-0.0513	-0.0554	29.5415	102.5674	0
38.5000	0.4592	0.0726	-0.0319	0.0387	29.5415	102.5708	0
39.0000	0.4166	-0.0852	-0.0282	0.0073	29.5415	102.5861	0
39.5000	0.5161	0.1988	-0.0246	0.0073	29.5415	102.5742	0
40.0000	0.4734	-0.0852	-0.0523	-0.0554	29.5415	102.5759	0
40.5000	0.4466	-0.0537	-0.0800	-0.0554	29.5415	102.5810	0
41.0000	0.4829	0.0726	-0.0607	0.0387	29.5415	102.5776	0
41.5000	0.4719	-0.0221	-0.0884	-0.0554	29.5415	102.5708	0
42.0000	0.4924	0.0410	-0.0377	0.1015	29.5415	102.5793	0
42.5000	0.4498	-0.0852	-0.0183	0.0387	29.5415	102.5810	0
43.0000	0.5019	0.1042	-0.0303	-0.0241	29.5415	102.5810	0
43.5000	0.4592	-0.0852	-0.0267	0.0073	29.5415	102.5912	0
44.0000	0.5113	0.1042	-0.0073	0.0387	29.5415	102.5827	0
44.5000	0.5161	0.0095	-0.0507	-0.0868	29.5415	102.5742	0
45.0000	0.5208	0.0095	-0.0785	-0.0554	29.5422	102.5776	0
45.5000	0.4624	-0.1168	-0.0591	0.0387	29.5415	102.5963	0
46.0000	0.4987	0.0726	-0.0554	0.0073	29.5415	102.5827	0
46.5000	0.5508	0.1042	-0.0518	0.0073	29.5415	102.5810	0
47.0000	0.5397	-0.0221	-0.0324	0.0387	29.5422	102.5776	0
47.5000	0.4971	-0.0852	-0.0601	-0.0554	29.5415	102.5759	0
48.0000	0.5492	0.1042	-0.0565	0.0073	29.5415	102.5827	0
48.5000	0.5539	0.0095	-0.0371	0.0387	29.5415	102.5895	0
49.0000	0.5744	0.0410	-0.0492	-0.0241	29.5415	102.5742	0
49.5000	0.5634	-0.0221	-0.0769	-0.0554	29.5422	102.5759	0
50.0000	0.5681	0.0095	-0.0418	0.0701	29.5415	102.5844	0
50.5000	0.5571	-0.0221	-0.0539	-0.0241	29.5415	102.5810	0
51.0000	0.6565	0.1988	-0.0345	0.0387	29.5415	102.5827	0
51.5000	0.5981	-0.1168	-0.0936	-0.1182	29.5415	102.5946	0
52.0000	0.5871	-0.0221	-0.0586	0.0701	29.5415	102.5827	0
52.5000	0.6076	0.0410	-0.0235	0.0701	29.5422	102.5691	0
53.0000	0.6439	0.0726	-0.0513	-0.0554	29.5430	102.5929	0
53.5000	0.6328	-0.0221	-0.0947	-0.0868	29.5430	102.5810	0
54.0000	0.6218	-0.0221	-0.0753	0.0387	29.5430	102.5776	0
54.5000	0.6107	-0.0221	-0.1030	-0.0554	29.5415	102.5844	0
55.0000	0.6313	0.0410	-0.0523	0.1015	29.5415	102.5708	0
55.5000	0.6676	0.0726	-0.0800	-0.0554	29.5430	102.5742	0
56.0000	0.5934	-0.1483	-0.0764	0.0073	29.5430	102.5759	0
56.5000	0.6455	0.1042	-0.0884	-0.0241	29.5415	102.5827	0
57.0000	0.6344	-0.0221	-0.0690	0.0387	29.5422	102.5827	0
57.5000	0.5760	-0.1168	-0.0654	0.0073	29.5430	102.5878	0
58.0000	0.6597	0.1673	-0.0303	0.0701	29.5430	102.5878	0
58.5000	0.6802	0.0410	-0.0424	-0.0241	29.5453	102.5827	0
59.0000	0.6691	-0.0221	-0.0387	0.0073	29.5422	102.5810	0
59.5000	0.7054	0.0726	-0.0350	0.0073	29.5491	102.5895	0
60.0000	0.6628	-0.0852	-0.0785	-0.0868	29.5415	102.5827	0

============== new measurement ==============

Application version: 1.3.4.31615
Logging started: 8-27-2019 11:46 am
PC Electrometer S/N: 96414013
Background compensation: YES, Background values: Input1: 0.000 pA, Input2: 0.000 pA
Input 1: Corrected Quantity Transform (pC/Count): 0.0157815, Laboratory Calibration:   1.0010
Input 2: Corrected Quantity Transform (pC/Count): 0.0156905, Laboratory Calibration:   1.0010
Bias Voltage: 0 V, Beam Type: Continuous
Detector1: none, S/N: none
Detector2: none, S/N: none
Time[s]	Charge1[pC]	Curnt1[pA]	Charge2[pC]	Curnt2[pA]	Temp[C]	Press[kPa]	Pulses
0.5000	0.1263	0.2525	0.0941	0.1883	29.4919	102.5861	0
1.0000	0.1736	0.0947	0.1412	0.0941	29.4919	102.6081	0
1.5000	0.2367	0.1263	0.1726	0.0628	29.4926	102.5827	0
2.0000	0.3156	0.1578	0.2667	0.1883	29.4926	102.5827	0
2.5000	0.4103	0.1894	0.2824	0.0314	29.4919	102.5759	0
3.0000	0.4261	0.0316	0.3452	0.1255	29.4926	102.5776	0
3.5000	0.5524	0.2525	0.4550	0.2197	29.4919	102.5827	0
4.0000	0.6313	0.1578	0.5021	0.0941	29.4911	102.5878	0
4.5000	0.6628	0.0631	0.5021	0.0000	29.4911	102.5844	0
5.0000	0.8049	0.2841	0.5962	0.1883	29.4926	102.5861	0
5.5000	0.8364	0.0631	0.5805	-0.0314	29.4911	102.5810	0
6.0000	0.9311	0.1894	0.7375	0.3138	29.4919	102.5827	0
6.5000	0.9942	0.1263	0.7688	0.0628	29.4926	102.5895	0
7.0000	1.1205	0.2525	0.8473	0.1569	29.4903	102.5963	0
7.5000	1.1678	0.0947	0.8787	0.0628	29.4919	102.5759	0
8.0000	1.2152	0.0947	0.9100	0.0628	29.4903	102.5793	0
8.5000	1.2941	0.1578	1.0199	0.2197	29.4858	102.6030	0
9.0000	1.3730	0.1578	1.0513	0.0628	29.4835	102.5946	0
9.5000	1.4677	0.1894	1.1297	0.1569	29.4743	102.5980	0
10.0000	1.5308	0.1263	1.1297	0.0000	29.4667	102.5861	0
10.5000	1.5624	0.0631	1.2239	0.1883	29.4614	102.5878	0
11.0000	1.6413	0.1578	1.3023	0.1569	29.4583	102.5776	0
11.5000	1.7360	0.1894	1.3180	0.0314	29.4484	102.5963	0
12.0000	1.8149	0.1578	1.3965	0.1569	29.4438	102.5844	0
12.5000	1.9096	0.1894	1.4435	0.0941	29.4446	102.5912	0
13.0000	2.0043	0.1894	1.5063	0.1255	29.4438	102.5810	0
13.5000	2.0200	0.0316	1.5847	0.1569	29.4438	102.5844	0
14.0000	2.1305	0.2209	1.6004	0.0314	29.4438	102.5776	0
14.5000	2.1621	0.0631	1.6632	0.1255	29.4438	102.5827	0
15.0000	2.2568	0.1894	1.7416	0.1569	29.4438	102.5759	0
15.5000	2.2725	0.0316	1.8201	0.1569	29.4438	102.5878	0
16.0000	2.4461	0.3472	1.8515	0.0628	29.4438	102.5980	0
16.5000	2.4619	0.0316	1.8829	0.0628	29.4438	102.5912	0
17.0000	2.5724	0.2209	1.9456	0.1255	29.4438	102.5980	0
17.5000	2.6513	0.1578	2.0554	0.2197	29.4430	102.5827	0
18.0000	2.6671	0.0316	2.0398	-0.0314	29.4430	102.5878	0
18.5000	2.7460	0.1578	2.1653	0.2510	29.4430	102.5912	0
19.0000	2.8249	0.1578	2.2437	0.1569	29.4430	102.5793	0
19.5000	2.8722	0.0947	2.2751	0.0628	29.4438	102.5742	0
20.0000	2.9985	0.2525	2.3536	0.1569	29.4430	102.5912	0
20.5000	3.0458	0.0947	2.3536	0.0000	29.4430	102.5929	0
21.0000	3.1247	0.1578	2.4634	0.2197	29.4430	102.5844	0
21.5000	3.2037	0.1578	2.5105	0.0941	29.4438	102.5827	0
22.0000	3.2037	0.0000	2.5262	0.0314	29.4430	102.5844	0
22.5000	3.3299	0.2525	2.6046	0.1569	29.4423	102.5861	0
23.0000	3.4404	0.2209	2.6517	0.0941	29.4415	102.5980	0
23.5000	3.5193	0.1578	2.6988	0.0941	29.4423	102.5996	0
24.0000	3.5824	0.1263	2.8086	0.2197	29.4438	102.5912	0
24.5000	3.6771	0.1894	2.8870	0.1569	29.4392	102.5878	0
25.0000	3.6929	0.0316	2.8557	-0.0628	29.4415	102.5793	0
25.5000	3.8033	0.2209	2.9498	0.1883	29.4392	102.5963	0
26.0000	3.8665	0.1263	3.0126	0.1255	29.4408	102.5878	0
26.5000	3.8980	0.0631	3.0910	0.1569	29.4324	102.5827	0
27.0000	4.0085	0.2209	3.1067	0.0314	29.4362	102.5810	0
27.5000	4.0085	0.0000	3.1852	0.1569	29.4285	102.5844	0
28.0000	4.1348	0.2525	3.2479	0.1255	29.4270	102.5895	0
28.5000	4.1821	0.0947	3.2950	0.0941	29.4133	102.5776	0
29.0000	4.2926	0.2209	3.3734	0.1569	29.4110	102.5844	0
29.5000	4.3399	0.0947	3.4205	0.0941	29.4102	102.5844	0
30.0000	4.4346	0.1894	3.4519	0.0628	29.3965	102.5810	0
30.5000	4.5135	0.1578	3.5460	0.1883	29.3980	102.5861	0
31.0000	4.5451	0.0631	3.5774	0.0628	29.3973	102.5793	0
31.5000	4.6556	0.2209	3.6559	0.1569	29.3957	102.5827	0
32.0000	4.7502	0.1894	3.7186	0.1255	29.3950	102.5844	0
32.5000	4.7818	0.0631	3.7186	0.0000	29.3950	102.5793	0
33.0000	4.8607	0.1578	3.8755	0.3138	29.3950	102.5878	0
33.5000	4.9396	0.1578	3.8912	0.0314	29.3950	102.5827	0
34.0000	5.0027	0.1263	3.9540	0.1255	29.3950	102.5759	0
34.5000	5.0817	0.1578	4.0324	0.1569	29.3950	102.5742	0
35.0000	5.1290	0.0947	4.0952	0.1255	29.3950	102.5657	0
35.5000	5.2237	0.1894	4.1737	0.1569	29.3950	102.5827	0
36.0000	5.2868	0.1263	4.1737	0.0000	29.3950	102.5810	0
36.5000	5.3499	0.1263	4.2678	0.1883	29.3950	102.5759	0
37.0000	5.4762	0.2525	4.3149	0.0941	29.3950	102.5810	0
37.5000	5.4920	0.0316	4.3933	0.1569	29.3950	102.5776	0
38.0000	5.6024	0.2209	4.3776	-0.0314	29.3950	102.5929	0
38.5000	5.6498	0.0947	4.4875	0.2197	29.3950	102.5793	0
39.0000	5.6971	0.0947	4.4875	0.0000	29.3950	102.5929	0
39.5000	5.8234	0.2525	4.5973	0.2197	29.3950	102.5674	0
40.0000	5.9023	0.1578	4.6914	0.1883	29.3950	102.5844	0
40.5000	5.9339	0.0631	4.7228	0.0628	29.3942	102.5759	0
41.0000	6.0128	0.1578	4.7699	0.0941	29.3942	102.5776	0
41.5000	6.0759	0.1263	4.7699	0.0000	29.3942	102.5725	0
42.0000	6.1548	0.1578	4.8797	0.2197	29.3950	102.5708	0
42.5000	6.2337	0.1578	4.9268	0.0941	29.3942	102.5793	0
43.0000	6.2968	0.1263	4.9425	0.0314	29.3942	102.5844	0
43.5000	6.3600	0.1263	5.0523	0.2197	29.3927	102.5793	0
44.0000	6.4546	0.1894	5.1151	0.1255	29.3942	102.5725	0
44.5000	6.4862	0.0631	5.1151	0.0000	29.3950	102.5725	0
45.0000	6.5809	0.1894	5.2092	0.1883	29.3942	102.5827	0
45.5000	6.6282	0.0947	5.2720	0.1255	29.3942	102.5691	0
46.0000	6.6914	0.1263	5.3348	0.1255	29.3927	102.5844	0
46.5000	6.8018	0.2209	5.3661	0.0628	29.3935	102.5810	0
47.0000	6.8807	0.1578	5.4446	0.1569	29.3927	102.5810	0
47.5000	6.9597	0.1578	5.4917	0.0941	29.3950	102.5691	0
48.0000	7.0070	0.0947	5.5387	0.0941	29.3927	102.5759	0
48.5000	7.0701	0.1263	5.6486	0.2197	29.3874	102.5759	0
49.0000	7.1490	0.1578	5.6799	0.0628	29.3851	102.5708	0
49.5000	7.1806	0.0631	5.7741	0.1883	29.3851	102.5742	0
50.0000	7.3068	0.2525	5.7898	0.0314	29.3683	102.5827	0
50.5000	7.3068	0.0000	5.8368	0.0941	29.3767	102.5878	0
51.0000	7.4489	0.2841	5.9624	0.2510	29.3828	102.5759	0
51.5000	7.4804	0.0631	5.9938	0.0628	29.3736	102.5725	0
52.0000	7.6067	0.2525	6.0408	0.0941	29.3599	102.5759	0
52.5000	7.6540	0.0947	6.1036	0.1255	29.3553	102.5691	0
53.0000	7.7014	0.0947	6.0879	-0.0314	29.3538	102.5827	0
53.5000	7.7803	0.1578	6.2291	0.2824	29.3568	102.5776	0
54.0000	7.8750	0.1894	6.2448	0.0314	29.3523	102.5844	0
54.5000	7.8908	0.0316	6.2762	0.0628	29.3477	102.5691	0
55.0000	7.9855	0.1894	6.3860	0.2197	29.3477	102.5691	0
55.5000	8.0801	0.1894	6.4174	0.0628	29.3484	102.5742	0
56.0000	8.1591	0.1578	6.4958	0.1569	29.3469	102.5844	0
56.5000	8.2064	0.0947	6.5586	0.1255	29.3462	102.5793	0
57.0000	8.3011	0.1894	6.6214	0.1255	29.3462	102.5674	0
57.5000	8.3642	0.1263	6.6841	0.1255	29.3462	102.5759	0
58.0000	8.3642	0.0000	6.7469	0.1255	29.3462	102.5844	0
58.5000	8.4905	0.2525	6.7940	0.0941	29.3462	102.5742	0
59.0000	8.5694	0.1578	6.8410	0.0941	29.3462	102.5657	0
59.5000	8.6325	0.1263	6.9038	0.1255	29.3462	102.5742	0
60.0000	8.6798	0.0947	6.9979	0.1883	29.3462	102.5793	0
49.500000	0.000000	0.157815	0.000000	0.156905	29.345388	102.562350	0.000000
50.000000	0.000000	0.063126	0.000000	0.094143	29.345388	102.565741	0.000000
50.500000	0.000000	0.157815	0.000000	0.188285	29.345388	102.570826	0.000000
51.000000	0.000000	0.284068	0.000000	0.125524	29.344625	102.572522	0.000000
51.500000	0.000000	0.000000	0.000000	0.125524	29.346151	102.582693	0.000000
52.000000	0.000000	0.189378	0.000000	0.062762	29.345388	102.580998	0.000000
52.500000	0.000000	0.063126	0.000000	0.188285	29.344625	102.577607	0.000000
53.000000	0.000000	0.157815	0.000000	0.031381	29.343099	102.569131	0.000000
53.500000	0.000000	0.189378	0.000000	0.156905	29.344625	102.574217	0.000000
54.000000	0.000000	0.031563	0.000000	0.188285	29.345388	102.567436	0.000000
54.500000	0.000000	0.284068	0.000000	0.062762	29.346151	102.587779	0.000000
55.000000	0.000000	0.094689	0.000000	0.125524	29.344625	102.582693	0.000000
55.500000	0.000000	0.063126	0.000000	0.125524	29.343099	102.577607	0.000000
56.000000	0.000000	0.189378	0.000000	0.062762	29.346151	102.575912	0.000000
56.500000	0.000000	0.094689	0.000000	0.062762	29.344625	102.582693	0.000000
57.000000	0.000000	0.157815	0.000000	0.188285	29.343099	102.579303	0.000000
57.500000	0.000000	0.157815	0.000000	0.062762	29.343862	102.570826	0.000000
58.000000	0.000000	0.094689	0.000000	0.062762	29.346151	102.582693	0.000000
58.500000	0.000000	0.189378	0.000000	0.219666	29.343862	102.577607	0.000000
59.000000	0.000000	0.000000	0.000000	0.000000	29.343862	102.589474	0.000000
59.500000	0.000000	0.284068	0.000000	0.251047	29.340810	102.579303	0.000000
60.000000	0.000000	0.157815	0.000000	0.062762	29.343862	102.574217	0.000000
60.500000	0.000000	0.126252	0.000000	0.125524	29.337758	102.567436	0.000000
61.000000	0.000000	0.220941	0.000000	0.188285	29.335470	102.575912	0.000000
61.500000	0.000000	0.000000	0.000000	0.031381	29.330892	102.575912	0.000000
62.000000	0.000000	0.284068	0.000000	0.188285	29.330129	102.570826	0.000000
62.500000	0.000000	0.094689	0.000000	0.094143	29.333181	102.577607	0.000000
63.000000	0.000000	0.126252	0.000000	0.094143	29.318685	102.574217	0.000000
63.500000	0.000000	0.094689	0.000000	0.125524	29.324025	102.570826	0.000000
64.000000	0.000000	0.157815	0.000000	0.188285	29.318685	102.577607	0.000000
64.500000	0.000000	0.063126	0.000000	0.031381	29.314870	102.570826	0.000000
65.000000	0.000000	0.284068	0.000000	0.125524	29.314870	102.586084	0.000000
65.500000	0.000000	0.126252	0.000000	0.094143	29.304189	102.577607	0.000000
66.000000	0.000000	0.063126	0.000000	0.125524	29.314107	102.564045	0.000000
66.500000	0.000000	0.126252	0.000000	0.125524	29.306477	102.565741	0.000000
67.000000	0.000000	0.126252	0.000000	0.188285	29.309529	102.562350	0.000000
67.500000	0.000000	0.189378	0.000000	0.062762	29.300374	102.569131	0.000000
68.000000	0.000000	0.157815	0.000000	0.125524	29.300374	102.575912	0.000000
68.500000	0.000000	0.094689	0.000000	0.156905	29.301137	102.569131	0.000000
69.000000	0.000000	0.063126	0.000000	0.031381	29.298848	102.575912	0.000000
69.500000	0.000000	0.189378	0.000000	0.094143	29.301137	102.575912	0.000000
70.000000	0.000000	0.157815	0.000000	0.094143	29.297322	102.579303	0.000000
70.500000	0.000000	0.157815	0.000000	0.188285	29.298085	102.574217	0.000000
71.000000	0.000000	0.126252	0.000000	0.094143	29.297322	102.564045	0.000000
71.500000	0.000000	0.157815	0.000000	0.188285	29.297322	102.575912	0.000000
72.000000	0.000000	0.189378	0.000000	0.000000	29.297322	102.572522	0.000000
72.500000	0.000000	0.126252	0.000000	0.251047	29.297322	102.564045	0.000000
73.000000	0.000000	0.126252	0.000000	0.125524	29.298085	102.579303	0.000000
73.500000	0.000000	0.094689	0.000000	-0.031381	29.297322	102.572522	0.000000
74.000000	0.000000	0.094689	0.000000	0.094143	29.297322	102.567436	0.000000
74.500000	0.000000	0.220941	0.000000	0.219666	29.297322	102.587779	0.000000
75.000000	0.000000	0.157815	0.000000	0.125524	29.297322	102.570826	0.000000
75.500000	0.000000	0.094689	0.000000	0.031381	29.297322	102.574217	0.000000
76.000000	0.000000	0.157815	0.000000	0.125524	29.297322	102.582693	0.000000
76.500000	0.000000	0.094689	0.000000	0.125524	29.297322	102.572522	0.000000
77.000000	0.000000	0.252504	0.000000	0.156905	29.297322	102.565741	0.000000
77.500000	0.000000	0.157815	0.000000	0.094143	29.297322	102.574217	0.000000
78.000000	0.000000	0.094689	0.000000	0.188285	29.297322	102.567436	0.000000
78.500000	0.000000	0.094689	0.000000	0.094143	29.297322	102.564045	0.000000
79.000000	0.000000	0.189378	0.000000	0.156905	29.297322	102.579303	0.000000
79.500000	0.000000	0.063126	0.000000	0.156905	29.297322	102.582693	0.000000
80.000000	0.000000	0.063126	0.000000	-0.062762	29.297322	102.579303	0.000000
80.500000	0.000000	0.252504	0.000000	0.282428	29.297322	102.572522	0.000000
81.000000	0.000000	0.126252	0.000000	0.000000	29.297322	102.577607	0.000000
81.500000	0.000000	0.189378	0.000000	0.219666	29.297322	102.575912	0.000000
82.000000	0.000000	0.031563	0.000000	0.094143	29.297322	102.569131	0.000000
82.500000	0.000000	0.126252	0.000000	0.094143	29.297322	102.574217	0.000000
83.000000	0.000000	0.220941	0.000000	0.125524	29.297322	102.567436	0.000000
83.500000	0.000000	0.157815	0.000000	0.062762	29.297322	102.569131	0.000000
84.000000	0.000000	0.126252	0.000000	0.125524	29.296559	102.574217	0.000000
84.500000	0.000000	0.157815	0.000000	0.156905	29.296559	102.577607	0.000000
85.000000	0.000000	0.126252	0.000000	0.094143	29.296559	102.575912	0.000000
85.500000	0.000000	0.126252	0.000000	0.031381	29.296559	102.584388	0.000000
86.000000	0.000000	0.094689	0.000000	0.156905	29.296559	102.577607	0.000000
86.500000	0.000000	0.126252	0.000000	0.251047	29.296559	102.589474	0.000000
87.000000	0.000000	0.157815	0.000000	0.031381	29.296559	102.572522	0.000000
87.500000	0.000000	0.094689	0.000000	0.125524	29.296559	102.572522	0.000000
88.000000	0.000000	0.284068	0.000000	0.125524	29.296559	102.586084	0.000000
88.500000	0.000000	0.126252	0.000000	0.031381	29.297322	102.591170	0.000000
89.000000	0.000000	0.031563	0.000000	0.188285	29.296559	102.586084	0.000000
89.500000	0.000000	0.284068	0.000000	0.094143	29.296559	102.597951	0.000000
90.000000	0.000000	0.031563	0.000000	0.125524	29.297322	102.582693	0.000000
90.500000	0.000000	0.126252	0.000000	0.094143	29.296559	102.586084	0.000000
91.000000	0.000000	0.189378	0.000000	0.156905	29.295796	102.586084	0.000000
91.500000	0.000000	0.189378	0.000000	0.125524	29.295796	102.592865	0.000000
92.000000	0.000000	0.126252	0.000000	0.156905	29.295796	102.574217	0.000000
92.500000	0.000000	0.031563	0.000000	0.062762	29.295796	102.582693	0.000000
93.000000	0.000000	0.157815	0.000000	0.125524	29.295796	102.586084	0.000000
93.500000	0.000000	0.126252	0.000000	0.125524	29.296559	102.587779	0.000000
94.000000	0.000000	0.189378	0.000000	0.062762	29.295033	102.584388	0.000000
94.500000	0.000000	0.157815	0.000000	0.125524	29.295796	102.587779	0.000000
95.000000	0.000000	0.126252	0.000000	0.156905	29.294270	102.586084	0.000000
95.500000	0.000000	0.189378	0.000000	0.156905	29.297322	102.580998	0.000000
96.000000	0.000000	0.094689	0.000000	0.062762	29.295033	102.584388	0.000000
96.500000	0.000000	0.126252	0.000000	0.125524	29.295033	102.577607	0.000000
97.000000	0.000000	0.063126	0.000000	0.062762	29.296559	102.586084	0.000000
97.500000	0.000000	0.220941	0.000000	0.094143	29.292744	102.587779	0.000000
98.000000	0.000000	0.094689	0.000000	0.125524	29.289693	102.580998	0.000000
98.500000	0.000000	0.157815	0.000000	0.219666	29.293507	102.582693	0.000000
99.000000	0.000000	0.157815	0.000000	0.062762	29.289693	102.569131	0.000000
99.500000	0.000000	0.157815	0.000000	0.000000	29.295033	102.577607	0.000000
100.000000	0.000000	0.189378	0.000000	0.219666	29.282826	102.577607	0.000000
100.500000	0.000000	0.126252	0.000000	0.156905	29.291218	102.575912	0.000000
101.000000	0.000000	0.094689	0.000000	0.094143	29.280537	102.575912	0.000000
101.500000	0.000000	0.189378	0.000000	0.156905	29.274434	102.564045	0.000000
102.000000	0.000000	0.126252	0.000000	0.031381	29.281300	102.572522	0.000000
102.500000	0.000000	0.094689	0.000000	0.188285	29.284352	102.579303	0.000000
103.000000	0.000000	0.157815	0.000000	0.031381	29.274434	102.565741	0.000000
103.500000	0.000000	0.126252	0.000000	0.094143	29.271382	102.575912	0.000000
104.000000	0.000000	0.189378	0.000000	0.219666	29.266804	102.572522	0.000000
104.500000	0.000000	0.063126	0.000000	0.031381	29.265278	102.570826	0.000000
105.000000	0.000000	0.220941	0.000000	0.156905	29.257649	102.574217	0.000000
105.500000	0.000000	0.126252	0.000000	0.094143	29.259937	102.572522	0.000000
106.000000	0.000000	0.094689	0.000000	0.031381	29.259174	102.565741	0.000000
106.500000	0.000000	0.031563	0.000000	0.219666	29.258412	102.591170	0.000000
107.000000	0.000000	0.284068	0.000000	0.156905	29.253071	102.580998	0.000000
107.500000	0.000000	0.126252	0.000000	0.094143	29.250782	102.577607	0.000000
108.000000	0.000000	0.157815	0.000000	0.156905	29.251545	102.574217	0.000000
108.500000	0.000000	0.094689	0.000000	0.125524	29.251545	102.570826	0.000000
109.000000	0.000000	0.189378	0.000000	0.031381	29.249256	102.572522	0.000000
109.500000	0.000000	0.094689	0.000000	0.094143	29.248493	102.579303	0.000000

============== new measurement ==============

Application version: 1.3.4.31615
Logging started: 8-27-2019 11:48 am
PC Electrometer S/N: 96414013
Background compensation: YES, Background values: Input1: 0.139 pA, Input2: 0.116 pA
Input 1: Corrected Quantity Transform (pC/Count): 0.0157815, Laboratory Calibration:   1.0010
Input 2: Corrected Quantity Transform (pC/Count): 0.0156905, Laboratory Calibration:   1.0010
Bias Voltage: 0 V, Beam Type: Continuous
Detector1: none, S/N: none
Detector2: none, S/N: none
Time[s]	Charge1[pC]	Curnt1[pA]	Charge2[pC]	Curnt2[pA]	Temp[C]	Press[kPa]	Pulses
0.5000	-0.0064	-0.0129	-0.0111	-0.0222	29.2485	102.5691	0
1.0000	-0.0287	-0.0445	-0.0065	0.0092	29.2485	102.5861	0
1.5000	-0.0036	0.0502	0.0137	0.0405	29.2485	102.5725	0
2.0000	-0.0100	-0.0129	0.0026	-0.0222	29.2485	102.5912	0
2.5000	-0.0007	0.0187	0.0229	0.0405	29.2485	102.5742	0
3.0000	0.0245	0.0502	0.0275	0.0092	29.2485	102.5810	0
3.5000	0.0022	-0.0445	0.0477	0.0405	29.2485	102.5759	0
4.0000	0.0431	0.0818	0.0209	-0.0536	29.2485	102.5742	0
4.5000	0.0367	-0.0129	0.0255	0.0092	29.2485	102.5844	0
5.0000	-0.0487	-0.1707	-0.0013	-0.0536	29.2485	102.5674	0
5.5000	0.0080	0.1134	0.0346	0.0719	29.2477	102.5878	0
6.0000	0.0174	0.0187	-0.0078	-0.0850	29.2485	102.5844	0
6.5000	-0.0522	-0.1391	-0.0033	0.0092	29.2485	102.5691	0
7.0000	0.0203	0.1449	0.0484	0.1033	29.2485	102.5810	0
7.5000	-0.0335	-0.1076	-0.0255	-0.1478	29.2485	102.5725	0
8.0000	-0.0400	-0.0129	-0.0366	-0.0222	29.2485	102.5691	0
8.5000	-0.0464	-0.0129	0.0150	0.1033	29.2485	102.5776	0
9.0000	-0.0213	0.0502	0.0824	0.1347	29.2477	102.5827	0
9.5000	0.0196	0.0818	0.0556	-0.0536	29.2485	102.5827	0
10.0000	-0.0500	-0.1391	-0.0183	-0.1478	29.2485	102.5827	0
10.5000	-0.0091	0.0818	-0.0137	0.0092	29.2485	102.5657	0
11.0000	-0.0155	-0.0129	0.0222	0.0719	29.2485	102.5725	0
11.5000	0.0096	0.0502	-0.0046	-0.0536	29.2485	102.5725	0
12.0000	0.0032	-0.0129	0.0314	0.0719	29.2477	102.5725	0
12.5000	-0.0191	-0.0445	0.0360	0.0092	29.2477	102.5657	0
13.0000	-0.0413	-0.0445	0.0405	0.0092	29.2477	102.5674	0
13.5000	0.0312	0.1449	-0.0177	-0.1164	29.2477	102.5607	0
14.0000	-0.0542	-0.1707	0.0026	0.0405	29.2485	102.5623	0
14.5000	0.0183	0.1449	0.0072	0.0092	29.2485	102.5725	0
15.0000	-0.0197	-0.0760	-0.0039	-0.0222	29.2477	102.5708	0
15.5000	-0.0420	-0.0445	0.0163	0.0405	29.2477	102.5657	0
16.0000	0.0463	0.1765	0.0523	0.0719	29.2477	102.5623	0
16.5000	-0.0075	-0.1076	-0.0059	-0.1164	29.2477	102.5725	0
17.0000	0.0018	0.0187	0.0301	0.0719	29.2477	102.5793	0
17.5000	-0.0204	-0.0445	0.0190	-0.0222	29.2477	102.5674	0
18.0000	-0.0268	-0.0129	0.0863	0.1347	29.2477	102.5556	0
18.5000	-0.0175	0.0187	0.0438	-0.0850	29.2477	102.5742	0
19.0000	-0.0239	-0.0129	-0.0301	-0.1478	29.2462	102.5742	0
19.5000	-0.0462	-0.0445	0.0216	0.1033	29.2470	102.5691	0
20.0000	-0.0210	0.0502	0.0418	0.0405	29.2462	102.5674	0
20.5000	-0.0433	-0.0445	-0.0007	-0.0850	29.2470	102.5827	0
21.0000	0.0134	0.1134	0.0353	0.0719	29.2485	102.5657	0
21.5000	-0.0246	-0.0760	0.0242	-0.0222	29.2477	102.5691	0
22.0000	0.0321	0.1134	0.0131	-0.0222	29.2477	102.5759	0
22.5000	0.0256	-0.0129	0.0333	0.0405	29.2477	102.5725	0
23.0000	-0.0124	-0.0760	0.0065	-0.0536	29.2470	102.5725	0
23.5000	-0.0346	-0.0445	0.0111	0.0092	29.2477	102.5810	0
24.0000	-0.0410	-0.0129	-0.0157	-0.0536	29.2477	102.5725	0
24.5000	-0.0159	0.0502	0.0046	0.0405	29.2485	102.5742	0
25.0000	-0.0539	-0.0760	0.0248	0.0405	29.2470	102.5691	0
25.5000	-0.0130	0.0818	0.0294	0.0092	29.2477	102.5793	0
26.0000	-0.0195	-0.0129	0.0183	-0.0222	29.2424	102.5657	0
26.5000	-0.0417	-0.0445	0.0543	0.0719	29.2462	102.5657	0
27.0000	-0.0481	-0.0129	-0.0353	-0.1791	29.2447	102.5674	0
27.5000	-0.0230	0.0502	0.0320	0.1347	29.2439	102.5827	0
28.0000	-0.0452	-0.0445	0.0366	0.0092	29.2439	102.5861	0
28.5000	-0.0517	-0.0129	0.0726	0.0719	29.2416	102.5674	0
29.0000	-0.0108	0.0818	0.0458	-0.0536	29.2287	102.5623	0
29.5000	-0.0488	-0.0760	0.0033	-0.0850	29.2393	102.5640	0
30.0000	0.0079	0.1134	0.0392	0.0719	29.2424	102.5725	0
30.5000	0.0014	-0.0129	0.0124	-0.0536	29.2332	102.5691	0
31.0000	-0.0366	-0.0760	0.0641	0.1033	29.2309	102.5759	0
31.5000	-0.0114	0.0502	0.0216	-0.0850	29.2370	102.5776	0
32.0000	0.0137	0.0502	-0.0052	-0.0536	29.2340	102.5725	0
32.5000	-0.0085	-0.0445	0.0464	0.1033	29.2340	102.5793	0
33.0000	0.0324	0.0818	0.0353	-0.0222	29.2317	102.5827	0
33.5000	-0.0530	-0.1707	0.0242	-0.0222	29.2210	102.5827	0
34.0000	-0.0279	0.0502	0.0445	0.0405	29.2218	102.5640	0
34.5000	-0.0343	-0.0129	0.0333	-0.0222	29.2226	102.5725	0
35.0000	-0.0092	0.0502	0.0065	-0.0536	29.2157	102.5742	0
35.5000	-0.0157	-0.0129	0.0425	0.0719	29.2142	102.5708	0
36.0000	-0.0221	-0.0129	0.0314	-0.0222	29.2103	102.5725	0
36.5000	-0.0443	-0.0445	0.0360	0.0092	29.2065	102.5742	0
37.0000	-0.0192	0.0502	0.0248	-0.0222	29.2081	102.5776	0
37.5000	-0.0414	-0.0445	0.0294	0.0092	29.2050	102.5725	0
38.0000	-0.0479	-0.0129	0.0340	0.0092	29.2050	102.5861	0
38.5000	-0.0385	0.0187	0.0543	0.0405	29.2058	102.5793	0
39.0000	-0.0292	0.0187	0.0431	-0.0222	29.2012	102.5759	0
39.5000	-0.0041	0.0502	0.0163	-0.0536	29.2012	102.5759	0
40.0000	-0.0579	-0.1076	0.0052	-0.0222	29.2012	102.5725	0
40.5000	0.0146	0.1449	0.0255	0.0405	29.2050	102.5810	0
41.0000	-0.0708	-0.1707	0.0458	0.0405	29.2012	102.5742	0
41.5000	-0.0614	0.0187	0.0660	0.0405	29.2027	102.5861	0
42.0000	0.0268	0.1765	0.0392	-0.0536	29.1997	102.5691	0
42.5000	-0.0270	-0.1076	-0.0033	-0.0850	29.2012	102.5759	0
43.0000	-0.0334	-0.0129	0.0641	0.1347	29.2012	102.5725	0
43.5000	-0.0714	-0.0760	0.0530	-0.0222	29.2004	102.5827	0
44.0000	-0.0463	0.0502	0.0262	-0.0536	29.2027	102.5708	0
44.5000	-0.0370	0.0187	0.0307	0.0092	29.2020	102.5793	0
45.0000	-0.0276	0.0187	0.0510	0.0405	29.2020	102.5810	0
45.5000	-0.0498	-0.0445	0.0713	0.0405	29.1997	102.5878	0
46.0000	-0.0721	-0.0445	0.0131	-0.1164	29.1997	102.5810	0
46.5000	-0.0785	-0.0129	0.0333	0.0405	29.2004	102.5725	0
47.0000	-0.0376	0.0818	0.0065	-0.0536	29.1997	102.5776	0
47.5000	-0.0598	-0.0445	0.0111	0.0092	29.1997	102.5810	0
48.0000	-0.0189	0.0818	0.0628	0.1033	29.1997	102.5742	0
48.5000	-0.0412	-0.0445	0.0516	-0.0222	29.1997	102.5607	0
49.0000	-0.0318	0.0187	0.0562	0.0092	29.1997	102.5793	0
49.5000	-0.0541	-0.0445	0.0451	-0.0222	29.1997	102.5725	0
50.0000	-0.0605	-0.0129	0.0497	0.0092	29.1997	102.5742	0
50.5000	-0.0512	0.0187	0.0072	-0.0850	29.1997	102.5725	0
51.0000	-0.0418	0.0187	0.0118	0.0092	29.1997	102.5725	0
51.5000	-0.0798	-0.0760	0.0477	0.0719	29.1997	102.5742	0
52.0000	-0.0389	0.0818	0.0052	-0.0850	29.1997	102.5844	0
52.5000	-0.0454	-0.0129	0.0412	0.0719	29.1997	102.5861	0
53.0000	-0.0992	-0.1076	-0.0170	-0.1164	29.1997	102.5793	0
53.5000	-0.0267	0.1449	0.0190	0.0719	29.1989	102.5827	0
54.0000	-0.0805	-0.1076	0.0549	0.0719	29.1997	102.5776	0
54.5000	-0.1027	-0.0445	0.0281	-0.0536	29.1997	102.5793	0
55.0000	0.0171	0.2396	0.0484	0.0405	29.1997	102.5691	0
55.5000	-0.0683	-0.1707	0.0530	0.0092	29.1997	102.5708	0
56.0000	-0.0274	0.0818	0.0262	-0.0536	29.1997	102.5793	0
56.5000	-0.0811	-0.1076	0.0307	0.0092	29.1997	102.5708	0
57.0000	-0.0718	0.0187	0.0196	-0.0222	29.1997	102.5844	0
57.5000	-0.0625	0.0187	0.0085	-0.0222	29.1997	102.5759	0
58.0000	-0.0847	-0.0445	0.0601	0.1033	29.1997	102.5793	0
58.5000	-0.0911	-0.0129	0.0490	-0.0222	29.1997	102.5657	0
59.0000	-0.0187	0.1449	0.0379	-0.0222	29.1997	102.5623	0
59.5000	-0.0725	-0.1076	0.0111	-0.0536	29.1997	102.5810	0
60.0000	-0.0631	0.0187	0.0628	0.1033	29.1997	102.5810	0

============== new measurement ==============

Application version: 1.3.4.31615
Logging started: 8-27-2019 1:21 pm
PC Electrometer S/N: 96414013
Background compensation: YES, Background values: Input1: 0.000 pA, Input2: 0.000 pA
Input 1: Corrected Quantity Transform (pC/Count): 0.0157815, Laboratory Calibration:   1.0010
Input 2: Corrected Quantity Transform (pC/Count): 0.0156905, Laboratory Calibration:   1.0010
Bias Voltage: +300 V, Beam Type: Continuous
Detector1: none, S/N: none
Detector2: none, S/N: none
Time[s]	Charge1[pC]	Curnt1[pA]	Charge2[pC]	Curnt2[pA]	Temp[C]	Press[kPa]	Pulses
0.5000	0.0473	0.0947	0.0157	0.0314	28.8396	102.5420	0
1.0000	0.1420	0.1894	0.0785	0.1255	28.8396	102.5437	0
1.5000	0.2052	0.1263	0.1726	0.1883	28.8434	102.5437	0
2.0000	0.2525	0.0947	0.1726	0.0000	28.8472	102.5454	0
2.5000	0.3156	0.1263	0.2510	0.1569	28.8479	102.5420	0
3.0000	0.3788	0.1263	0.3138	0.1255	28.8518	102.5437	0
3.5000	0.4577	0.1578	0.3609	0.0941	28.8472	102.5403	0
4.0000	0.5050	0.0947	0.4236	0.1255	28.8487	102.5420	0
4.5000	0.5997	0.1894	0.4864	0.1255	28.8548	102.5437	0
5.0000	0.6155	0.0316	0.5178	0.0628	28.8556	102.5437	0
5.5000	0.7102	0.1894	0.5649	0.0941	28.8556	102.5420	0

============== new measurement ==============

Application version: 1.3.4.31615
Logging started: 8-27-2019 1:21 pm
PC Electrometer S/N: 96414013
Background compensation: YES, Background values: Input1: 0.000 pA, Input2: 0.000 pA
Input 1: Corrected Quantity Transform (pC/Count): 0.0157815, Laboratory Calibration:   1.0010
Input 2: Corrected Quantity Transform (pC/Count): 0.0156905, Laboratory Calibration:   1.0010
Bias Voltage: +300 V, Beam Type: Continuous
Detector1: none, S/N: none
Detector2: none, S/N: none
Time[s]	Charge1[pC]	Curnt1[pA]	Charge2[pC]	Curnt2[pA]	Temp[C]	Press[kPa]	Pulses
0.5000	0.0158	0.0316	0.1255	0.2510	28.8571	102.5454	0
1.0000	0.1105	0.1894	0.1726	0.0941	28.8571	102.5437	0
1.5000	0.1736	0.1263	0.2510	0.1569	28.8579	102.5454	0
2.0000	0.2525	0.1578	0.2981	0.0941	28.8571	102.5437	0
2.5000	0.2525	0.0000	0.3609	0.1255	28.8571	102.5437	0
3.0000	0.3630	0.2209	0.3923	0.0628	28.8571	102.5420	0
3.5000	0.3945	0.0631	0.4707	0.1569	28.8586	102.5454	0
4.0000	0.5050	0.2209	0.5178	0.0941	28.8579	102.5437	0
4.5000	0.5208	0.0316	0.5649	0.0941	28.8579	102.5454	0
5.0000	0.5997	0.1578	0.6590	0.1883	28.8571	102.5437	0
5.5000	0.6313	0.0631	0.7061	0.0941	28.8579	102.5454	0
6.0000	0.7260	0.1894	0.7845	0.1569	28.8579	102.5454	0
6.5000	0.8049	0.1578	0.7845	0.0000	28.8579	102.5454	0
7.0000	0.8680	0.1263	0.8630	0.1569	28.8571	102.5437	0
7.5000	0.8995	0.0631	0.9100	0.0941	28.8579	102.5454	0
8.0000	0.9469	0.0947	0.9571	0.0941	28.8571	102.5420	0
8.5000	1.0258	0.1578	1.0199	0.1255	28.8579	102.5437	0
9.0000	1.0100	-0.0316	1.0670	0.0941	28.8579	102.5437	0
9.5000	1.1205	0.2209	1.0670	0.0000	28.8579	102.5420	0
10.0000	1.2152	0.1894	1.2082	0.2824	28.8579	102.5437	0
10.5000	1.2152	0.0000	1.2552	0.0941	28.8579	102.5454	0
11.0000	1.2783	0.1263	1.2866	0.0628	28.8579	102.5437	0
11.5000	1.3888	0.2209	1.3651	0.1569	28.8579	102.5437	0
12.0000	1.4203	0.0631	1.4121	0.0941	28.8579	102.5437	0
12.5000	1.4992	0.1578	1.4749	0.1255	28.8586	102.5437	0
13.0000	1.5624	0.1263	1.4906	0.0314	28.8579	102.5420	0
13.5000	1.6097	0.0947	1.5690	0.1569	28.8579	102.5437	0
14.0000	1.7044	0.1894	1.6318	0.1255	28.8579	102.5437	0
14.5000	1.7202	0.0316	1.6789	0.0941	28.8579	102.5437	0
15.0000	1.7991	0.1578	1.7259	0.0941	28.8579	102.5437	0
15.5000	1.8780	0.1578	1.8201	0.1883	28.8579	102.5454	0
16.0000	1.8938	0.0316	1.8515	0.0628	28.8579	102.5420	0
16.5000	1.9569	0.1263	1.9456	0.1883	28.8579	102.5454	0
17.0000	2.0358	0.1578	1.9456	0.0000	28.8586	102.5437	0
17.5000	2.0832	0.0947	2.0084	0.1255	28.8594	102.5420	0
18.0000	2.1779	0.1894	2.0711	0.1255	28.8594	102.5420	0
18.5000	2.2094	0.0631	2.1496	0.1569	28.8602	102.5420	0
19.0000	2.2568	0.0947	2.1810	0.0628	28.8579	102.5437	0
19.5000	2.3514	0.1894	2.2124	0.0628	28.8586	102.5454	0
20.0000	2.4146	0.1263	2.2908	0.1569	28.8594	102.5437	0
20.5000	2.4304	0.0316	2.3379	0.0941	28.8632	102.5403	0
21.0000	2.5250	0.1894	2.4163	0.1569	28.8632	102.5454	0
21.5000	2.5882	0.1263	2.4948	0.1569	28.8762	102.5420	0
22.0000	2.6040	0.0316	2.5575	0.1255	28.8762	102.5437	0
22.5000	2.7144	0.2209	2.5889	0.0628	28.8716	102.5454	0
23.0000	2.7460	0.0631	2.6046	0.0314	28.8800	102.5454	0
23.5000	2.8091	0.1263	2.6360	0.0628	28.8746	102.5437	0
24.0000	2.8880	0.1578	2.7144	0.1569	28.8724	102.5437	0
24.5000	2.9669	0.1578	2.8243	0.2197	28.8800	102.5437	0
25.0000	3.0143	0.0947	2.8243	0.0000	28.8792	102.5437	0
25.5000	3.0616	0.0947	2.9341	0.2197	28.8891	102.5420	0
26.0000	3.1247	0.1263	2.9655	0.0628	28.8922	102.5437	0
26.5000	3.2194	0.1894	3.0283	0.1255	28.8853	102.5420	0
27.0000	3.2668	0.0947	3.0753	0.0941	28.8876	102.5437	0
27.5000	3.3457	0.1578	3.2009	0.2510	28.8891	102.5454	0
28.0000	3.3299	-0.0316	3.1538	-0.0941	28.8991	102.5437	0
28.5000	3.4562	0.2525	3.2793	0.2510	28.8952	102.5437	0
29.0000	3.5035	0.0947	3.3107	0.0628	28.9021	102.5454	0
29.5000	3.5666	0.1263	3.3734	0.1255	28.8968	102.5437	0
30.0000	3.6140	0.0947	3.4362	0.1255	28.8998	102.5437	0
30.5000	3.7244	0.2209	3.4519	0.0314	28.9044	102.5454	0
31.0000	3.7402	0.0316	3.5774	0.2510	28.8975	102.5437	0
31.5000	3.8033	0.1263	3.5460	-0.0628	28.9067	102.5454	0
32.0000	3.8980	0.1894	3.6245	0.1569	28.9044	102.5437	0
32.5000	3.9138	0.0316	3.6873	0.1255	28.9052	102.5437	0
33.0000	4.0085	0.1894	3.7343	0.0941	28.9036	102.5420	0
33.5000	4.0401	0.0631	3.8285	0.1883	28.9036	102.5437	0
34.0000	4.1190	0.1578	3.8755	0.0941	28.9044	102.5437	0
34.5000	4.2137	0.1894	3.9383	0.1255	28.9044	102.5420	0
35.0000	4.2452	0.0631	3.9697	0.0628	28.9059	102.5437	0
35.5000	4.3399	0.1894	4.0168	0.0941	28.9052	102.5420	0
36.0000	4.3557	0.0316	4.0795	0.1255	28.9052	102.5437	0
36.5000	4.4188	0.1263	4.1423	0.1255	28.9059	102.5437	0
37.0000	4.4820	0.1263	4.2207	0.1569	28.9052	102.5420	0
37.5000	4.5451	0.1263	4.2364	0.0314	28.9052	102.5420	0
38.0000	4.6082	0.1263	4.2992	0.1255	28.9052	102.5437	0
38.5000	4.6713	0.1263	4.3776	0.1569	28.9067	102.5454	0
39.0000	4.7187	0.0947	4.3933	0.0314	28.9059	102.5420	0
39.5000	4.7976	0.1578	4.4404	0.0941	28.9067	102.5471	0
40.0000	4.8607	0.1263	4.5659	0.2510	28.9059	102.5437	0
40.5000	4.9238	0.1263	4.5659	0.0000	28.9052	102.5437	0
41.0000	4.9712	0.0947	4.6601	0.1883	28.9059	102.5437	0
41.5000	5.0185	0.0947	4.7071	0.0941	28.9052	102.5437	0
42.0000	5.1290	0.2209	4.7699	0.1255	28.9052	102.5454	0
42.5000	5.1763	0.0947	4.8327	0.1255	28.9059	102.5420	0
43.0000	5.2710	0.1894	4.8640	0.0628	28.9067	102.5454	0
43.5000	5.3184	0.0947	4.9739	0.2197	28.9059	102.5437	0
44.0000	5.3815	0.1263	5.0053	0.0628	28.9067	102.5437	0
44.5000	5.3973	0.0316	5.0366	0.0628	28.9067	102.5454	0
45.0000	5.4762	0.1578	5.0994	0.1255	28.9052	102.5420	0
45.5000	5.5393	0.1263	5.1778	0.1569	28.9059	102.5437	0
46.0000	5.5867	0.0947	5.1778	0.0000	28.9059	102.5437	0
46.5000	5.6340	0.0947	5.2720	0.1883	28.9059	102.5420	0
47.0000	5.7129	0.1578	5.3034	0.0628	28.9067	102.5437	0
47.5000	5.7760	0.1263	5.3818	0.1569	28.9059	102.5420	0
48.0000	5.8392	0.1263	5.4289	0.0941	28.9059	102.5420	0
48.5000	5.9023	0.1263	5.4917	0.1255	28.9052	102.5420	0
49.0000	5.9654	0.1263	5.5387	0.0941	28.9067	102.5454	0
49.5000	6.0443	0.1578	5.6015	0.1255	28.9067	102.5437	0
50.0000	6.0601	0.0316	5.6486	0.0941	28.9067	102.5454	0
50.5000	6.1706	0.2209	5.6956	0.0941	28.9059	102.5437	0
51.0000	6.2495	0.1578	5.7898	0.1883	28.9067	102.5454	0
51.5000	6.2810	0.0631	5.8055	0.0314	28.9067	102.5437	0
52.0000	6.3757	0.1894	5.8839	0.1569	28.9067	102.5437	0
52.5000	6.3600	-0.0316	5.9467	0.1255	28.9067	102.5437	0
53.0000	6.4704	0.2209	5.9310	-0.0314	28.9067	102.5437	0
53.5000	6.5493	0.1578	6.0722	0.2824	28.9067	102.5437	0
54.0000	6.5967	0.0947	6.0565	-0.0314	28.9067	102.5437	0
54.5000	6.6282	0.0631	6.1507	0.1883	28.9067	102.5454	0
55.0000	6.6756	0.0947	6.1977	0.0941	28.9067	102.5454	0
55.5000	6.7545	0.1578	6.2762	0.1569	28.9067	102.5437	0
56.0000	6.8492	0.1894	6.3233	0.0941	28.9067	102.5454	0
56.5000	6.8965	0.0947	6.3860	0.1255	28.9067	102.5437	0
57.0000	6.9439	0.0947	6.3703	-0.0314	28.9067	102.5454	0
57.5000	7.0228	0.1578	6.4645	0.1883	28.9067	102.5454	0
58.0000	7.0701	0.0947	6.4958	0.0628	28.9067	102.5403	0
58.5000	7.1017	0.0631	6.5900	0.1883	28.9075	102.5454	0
59.0000	7.1964	0.1894	6.6057	0.0314	28.9067	102.5420	0
59.5000	7.2911	0.1894	6.6841	0.1569	28.9067	102.5454	0
60.0000	7.3384	0.0947	6.7940	0.2197	28.9067	102.5437	0
242.500000	0.000000	0.157815	0.000000	0.094143	29.053178	102.545397	0.000000
243.000000	0.000000	0.157815	0.000000	0.188285	29.052415	102.543702	0.000000
243.500000	0.000000	0.157815	0.000000	-0.031381	29.053178	102.543702	0.000000
244.000000	0.000000	0.031563	0.000000	0.094143	29.052415	102.543702	0.000000
244.500000	0.000000	0.220941	0.000000	0.251047	29.053178	102.545397	0.000000
245.000000	0.000000	0.000000	0.000000	0.031381	29.053178	102.545397	0.000000
245.500000	0.000000	0.189378	0.000000	0.125524	29.052415	102.542007	0.000000
246.000000	0.000000	0.189378	0.000000	0.125524	29.051652	102.542007	0.000000
246.500000	0.000000	0.063126	0.000000	0.062762	29.052415	102.540311	0.000000
247.000000	0.000000	0.063126	0.000000	0.219666	29.052415	102.542007	0.000000
247.500000	0.000000	0.220941	0.000000	0.094143	29.053178	102.543702	0.000000
248.000000	0.000000	0.157815	0.000000	0.094143	29.053178	102.545397	0.000000
248.500000	0.000000	0.031563	0.000000	0.125524	29.053178	102.545397	0.000000
249.000000	0.000000	0.157815	0.000000	0.156905	29.052415	102.542007	0.000000
249.500000	0.000000	0.031563	0.000000	0.031381	29.052415	102.542007	0.000000
250.000000	0.000000	0.252504	0.000000	0.188285	29.052415	102.540311	0.000000
250.500000	0.000000	0.126252	0.000000	0.062762	29.052415	102.543702	0.000000
251.000000	0.000000	-0.031563	0.000000	0.094143	29.052415	102.542007	0.000000
251.500000	0.000000	0.220941	0.000000	0.156905	29.053178	102.542007	0.000000
252.000000	0.000000	0.189378	0.000000	0.094143	29.052415	102.543702	0.000000
252.500000	0.000000	0.094689	0.000000	0.094143	29.053178	102.543702	0.000000
253.000000	0.000000	0.063126	0.000000	0.156905	29.053178	102.545397	0.000000
253.500000	0.000000	0.157815	0.000000	0.031381	29.053178	102.545397	0.000000
254.000000	0.000000	0.157815	0.000000	0.125524	29.052415	102.543702	0.000000
254.500000	0.000000	0.094689	0.000000	0.125524	29.053178	102.545397	0.000000
255.000000	0.000000	0.094689	0.000000	0.000000	29.053178	102.543702	0.000000
255.500000	0.000000	0.189378	0.000000	0.282428	29.053178	102.540311	0.000000
256.000000	0.000000	0.157815	0.000000	0.062762	29.053178	102.543702	0.000000
256.500000	0.000000	0.157815	0.000000	0.156905	29.052415	102.543702	0.000000
257.000000	0.000000	0.031563	0.000000	0.031381	29.053178	102.543702	0.000000
257.500000	0.000000	0.094689	0.000000	0.125524	29.053178	102.543702	0.000000
258.000000	0.000000	0.220941	0.000000	0.188285	29.052415	102.540311	0.000000
258.500000	0.000000	0.063126	0.000000	0.062762	29.053178	102.545397	0.000000
259.000000	0.000000	0.157815	0.000000	0.094143	29.053178	102.543702	0.000000
259.500000	0.000000	0.094689	0.000000	0.156905	29.053941	102.547093	0.000000
260.000000	0.000000	0.094689	0.000000	0.062762	29.052415	102.542007	0.000000
260.500000	0.000000	0.220941	0.000000	0.094143	29.053178	102.543702	0.000000
261.000000	0.000000	0.157815	0.000000	0.188285	29.053178	102.545397	0.000000
261.500000	0.000000	0.000000	0.000000	0.094143	29.052415	102.542007	0.000000
262.000000	0.000000	0.220941	0.000000	0.062762	29.053178	102.545397	0.000000
262.500000	0.000000	0.031563	0.000000	0.188285	29.052415	102.542007	0.000000
263.000000	0.000000	0.126252	0.000000	-0.031381	29.053941	102.545397	0.000000
263.500000	0.000000	0.252504	0.000000	0.156905	29.053178	102.543702	0.000000
264.000000	0.000000	0.000000	0.000000	0.188285	29.053178	102.545397	0.000000
264.500000	0.000000	0.157815	0.000000	0.000000	29.053178	102.545397	0.000000
265.000000	0.000000	0.189378	0.000000	0.282428	29.053941	102.538616	0.000000
265.500000	0.000000	-0.031563	0.000000	-0.031381	29.053178	102.545397	0.000000
266.000000	0.000000	0.220941	0.000000	0.282428	29.053178	102.542007	0.000000
266.500000	0.000000	0.157815	0.000000	0.031381	29.053178	102.542007	0.000000
267.000000	0.000000	0.063126	0.000000	0.125524	29.053941	102.545397	0.000000
267.500000	0.000000	0.220941	0.000000	0.156905	29.053178	102.545397	0.000000
268.000000	0.000000	0.063126	0.000000	0.094143	29.053178	102.545397	0.000000
268.500000	0.000000	0.094689	0.000000	-0.062762	29.053178	102.545397	0.000000
269.000000	0.000000	0.220941	0.000000	0.188285	29.053178	102.543702	0.000000
269.500000	0.000000	0.157815	0.000000	0.094143	29.053178	102.543702	0.000000
270.000000	0.000000	0.094689	0.000000	0.062762	29.053941	102.543702	0.000000
270.500000	0.000000	0.189378	0.000000	0.251047	29.053178	102.545397	0.000000
271.000000	0.000000	0.031563	0.000000	0.031381	29.053178	102.543702	0.000000
271.500000	0.000000	0.031563	0.000000	0.156905	29.053178	102.542007	0.000000
272.000000	0.000000	0.284068	0.000000	0.188285	29.053178	102.543702	0.000000
272.500000	0.000000	0.094689	0.000000	0.062762	29.053178	102.543702	0.000000
273.000000	0.000000	0.031563	0.000000	0.094143	29.053178	102.542007	0.000000
273.500000	0.000000	0.094689	0.000000	0.031381	29.053178	102.543702	0.000000
274.000000	0.000000	0.284068	0.000000	0.219666	29.053178	102.545397	0.000000
274.500000	0.000000	0.094689	0.000000	0.094143	29.053178	102.542007	0.000000
275.000000	0.000000	0.126252	0.000000	0.156905	29.053178	102.542007	0.000000
275.500000	0.000000	-0.031563	0.000000	-0.062762	29.053941	102.543702	0.000000
276.000000	0.000000	0.157815	0.000000	0.282428	29.053178	102.542007	0.000000
276.500000	0.000000	0.220941	0.000000	0.062762	29.053178	102.545397	0.000000
277.000000	0.000000	0.157815	0.000000	0.188285	29.053178	102.543702	0.000000
277.500000	0.000000	0.126252	0.000000	0.094143	29.053178	102.542007	0.000000
278.000000	0.000000	0.063126	0.000000	0.062762	29.053178	102.545397	0.000000
278.500000	0.000000	0.189378	0.000000	0.125524	29.053178	102.545397	0.000000
279.000000	0.000000	0.063126	0.000000	0.094143	29.053178	102.545397	0.000000
279.500000	0.000000	0.094689	0.000000	0.031381	29.053178	102.543702	0.000000
280.000000	0.000000	0.189378	0.000000	0.251047	29.053178	102.545397	0.000000
280.500000	0.000000	0.157815	0.000000	0.000000	29.053178	102.542007	0.000000
281.000000	0.000000	0.000000	0.000000	0.094143	29.053178	102.545397	0.000000
281.500000	0.000000	0.252504	0.000000	0.219666	29.053178	102.542007	0.000000
282.000000	0.000000	0.094689	0.000000	-0.031381	29.053178	102.542007	0.000000
282.500000	0.000000	0.094689	0.000000	0.188285	29.055467	102.543702	0.000000
283.000000	0.000000	0.189378	0.000000	0.188285	29.054704	102.543702	0.000000
283.500000	0.000000	0.031563	0.000000	0.125524	29.055467	102.540311	0.000000
284.000000	0.000000	0.220941	0.000000	0.062762	29.054704	102.545397	0.000000
284.500000	0.000000	0.126252	0.000000	0.094143	29.053941	102.543702	0.000000
285.000000	0.000000	0.063126	0.000000	0.000000	29.053941	102.542007	0.000000
285.500000	0.000000	0.157815	0.000000	0.219666	29.054704	102.545397	0.000000
286.000000	0.000000	0.063126	0.000000	0.156905	29.053178	102.545397	0.000000
286.500000	0.000000	0.157815	0.000000	0.062762	29.053941	102.545397	0.000000
287.000000	0.000000	0.126252	0.000000	-0.031381	29.054704	102.542007	0.000000
287.500000	0.000000	0.094689	0.000000	0.251047	29.053941	102.543702	0.000000
288.000000	0.000000	0.189378	0.000000	0.062762	29.055467	102.543702	0.000000
288.500000	0.000000	0.094689	0.000000	0.251047	29.054704	102.545397	0.000000
289.000000	0.000000	0.063126	0.000000	-0.031381	29.056992	102.542007	0.000000
289.500000	0.000000	0.220941	0.000000	0.188285	29.056229	102.543702	0.000000
290.000000	0.000000	0.157815	0.000000	0.062762	29.058518	102.543702	0.000000
290.500000	0.000000	0.031563	0.000000	0.156905	29.057755	102.543702	0.000000
291.000000	0.000000	0.189378	0.000000	0.188285	29.058518	102.545397	0.000000
291.500000	0.000000	0.063126	0.000000	0.031381	29.060807	102.545397	0.000000
292.000000	0.000000	0.126252	0.000000	0.000000	29.056229	102.543702	0.000000
292.500000	0.000000	0.252504	0.000000	0.188285	29.057755	102.542007	0.000000
293.000000	0.000000	0.063126	0.000000	0.125524	29.058518	102.543702	0.000000
293.500000	0.000000	0.094689	0.000000	0.156905	29.060807	102.545397	0.000000
294.000000	0.000000	0.157815	0.000000	0.188285	29.060044	102.545397	0.000000
294.500000	0.000000	0.094689	0.000000	0.031381	29.060044	102.542007	0.000000
295.000000	0.000000	0.157815	0.000000	0.031381	29.060807	102.543702	0.000000
295.500000	0.000000	0.063126	0.000000	0.125524	29.069963	102.542007	0.000000
296.000000	0.000000	0.189378	0.000000	0.094143	29.062333	102.543702	0.000000
296.500000	0.000000	0.094689	0.000000	0.156905	29.059281	102.543702	0.000000
297.000000	0.000000	0.220941	0.000000	0.219666	29.065385	102.542007	0.000000
297.500000	0.000000	0.000000	0.000000	0.000000	29.061570	102.543702	0.000000
298.000000	0.000000	0.189378	0.000000	0.156905	29.068437	102.543702	0.000000
298.500000	0.000000	0.126252	0.000000	0.094143	29.069963	102.545397	0.000000
299.000000	0.000000	0.157815	0.000000	0.031381	29.068437	102.543702	0.000000
299.500000	0.000000	0.031563	0.000000	0.156905	29.073014	102.545397	0.000000
300.000000	0.000000	0.252504	0.000000	0.156905	29.065385	102.545397	0.000000
300.500000	0.000000	0.031563	0.000000	0.094143	29.078355	102.545397	0.000000
301.000000	0.000000	0.063126	0.000000	0.062762	29.080644	102.543702	0.000000
301.500000	0.000000	0.252504	0.000000	0.125524	29.071489	102.545397	0.000000
302.000000	0.000000	0.031563	0.000000	0.156905	29.079118	102.543702	0.000000
302.500000	0.000000	0.157815	0.000000	0.000000	29.079118	102.545397	0.000000

============== new measurement ==============

Application version: 1.3.4.31615
Logging started: 8-27-2019 1:26 pm
PC Electrometer S/N: 96414013
Background compensation: YES, Background values: Input1: 0.126 pA, Input2: 0.111 pA
Input 1: Corrected Quantity Transform (pC/Count): 0.0157815, Laboratory Calibration:   1.0010
Input 2: Corrected Quantity Transform (pC/Count): 0.0156905, Laboratory Calibration:   1.0010
Bias Voltage: +300 V, Beam Type: Continuous
Detector1: none, S/N: none
Detector2: none, S/N: none
Time[s]	Charge1[pC]	Curnt1[pA]	Charge2[pC]	Curnt2[pA]	Temp[C]	Press[kPa]	Pulses
0.5000	0.0317	0.0634	0.0384	0.0769	29.0997	102.5437	0
1.0000	0.0634	0.0634	0.0298	-0.0173	29.1005	102.5471	0
1.5000	0.0162	-0.0944	0.0055	-0.0486	29.1020	102.5454	0
2.0000	0.0321	0.0318	-0.0031	-0.0173	29.0990	102.5437	0
2.5000	0.0480	0.0318	-0.0118	-0.0173	29.0997	102.5454	0
3.0000	0.0166	-0.0629	-0.0047	0.0141	29.1020	102.5471	0
3.5000	0.0167	0.0003	0.0808	0.1710	29.1020	102.5454	0
4.0000	0.0168	0.0003	-0.0063	-0.1742	29.1005	102.5437	0
4.5000	0.0170	0.0003	0.0322	0.0769	29.1005	102.5420	0
5.0000	0.0487	0.0634	0.0706	0.0769	29.1020	102.5454	0
5.5000	0.0172	-0.0629	-0.0008	-0.1428	29.0997	102.5403	0
6.0000	0.0016	-0.0313	0.0377	0.0769	29.1012	102.5454	0
6.5000	0.0648	0.1265	0.0447	0.0141	29.0997	102.5454	0
7.0000	0.0334	-0.0629	0.0047	-0.0800	29.0990	102.5437	0
7.5000	0.0178	-0.0313	0.0118	0.0141	29.0997	102.5403	0
8.0000	0.0021	-0.0313	0.0031	-0.0173	29.1012	102.5420	0
8.5000	-0.0135	-0.0313	0.0259	0.0455	29.1012	102.5403	0
9.0000	0.0024	0.0318	0.0016	-0.0486	29.1012	102.5420	0
9.5000	0.0025	0.0003	0.0243	0.0455	29.1005	102.5420	0
10.0000	0.0184	0.0318	0.0157	-0.0173	29.0997	102.5403	0
10.5000	0.0343	0.0318	0.0541	0.0769	29.1012	102.5420	0
11.0000	0.0345	0.0003	0.0141	-0.0800	29.1012	102.5437	0
11.5000	0.0346	0.0003	0.0526	0.0769	29.1020	102.5454	0
12.0000	0.0347	0.0003	0.0282	-0.0486	29.1012	102.5437	0
12.5000	-0.0441	-0.1576	-0.0275	-0.1114	29.1005	102.5403	0
13.0000	-0.0124	0.0634	0.0424	0.1396	29.1005	102.5403	0
13.5000	0.0036	0.0318	0.0337	-0.0173	29.1005	102.5420	0
14.0000	0.0195	0.0318	0.0251	-0.0173	29.1012	102.5437	0
14.5000	0.0354	0.0318	0.0322	0.0141	29.0997	102.5420	0
15.0000	0.0197	-0.0313	0.0235	-0.0173	29.1012	102.5420	0
15.5000	0.0041	-0.0313	0.0620	0.0769	29.1012	102.5437	0
16.0000	0.0516	0.0950	0.0220	-0.0800	29.1012	102.5437	0
16.5000	-0.0272	-0.1576	0.0133	-0.0173	29.1020	102.5420	0
17.0000	0.0203	0.0950	0.0047	-0.0173	29.1005	102.5437	0
17.5000	0.0677	0.0950	0.0118	0.0141	29.1012	102.5420	0
18.0000	0.0205	-0.0944	0.0345	0.0455	29.1012	102.5420	0
18.5000	0.0206	0.0003	0.0259	-0.0173	29.1012	102.5403	0
19.0000	0.0366	0.0318	0.0329	0.0141	29.1012	102.5403	0
19.5000	0.0367	0.0003	0.0086	-0.0486	29.1012	102.5420	0
20.0000	0.0210	-0.0313	0.0157	0.0141	29.1020	102.5420	0
20.5000	0.0212	0.0003	-0.0086	-0.0486	29.1012	102.5437	0
21.0000	-0.0260	-0.0944	0.0141	0.0455	29.1012	102.5437	0
21.5000	0.0057	0.0634	0.0683	0.1083	29.1012	102.5420	0
22.0000	0.0216	0.0318	0.0439	-0.0486	29.1012	102.5403	0
22.5000	-0.0099	-0.0629	0.0353	-0.0173	29.1020	102.5454	0
23.0000	0.0060	0.0318	0.0267	-0.0173	29.1005	102.5420	0
23.5000	0.0377	0.0634	0.0180	-0.0173	29.1012	102.5403	0
24.0000	0.0379	0.0003	0.0565	0.0769	29.1012	102.5437	0
24.5000	0.0064	-0.0629	0.0165	-0.0800	29.1020	102.5437	0
25.0000	0.0381	0.0634	0.0235	0.0141	29.1020	102.5420	0
25.5000	0.0225	-0.0313	0.0620	0.0769	29.1012	102.5420	0
26.0000	0.0068	-0.0313	0.0533	-0.0173	29.1005	102.5403	0
26.5000	0.0385	0.0634	0.0604	0.0141	29.1012	102.5420	0
27.0000	0.0387	0.0003	0.0518	-0.0173	29.1012	102.5437	0
27.5000	0.0388	0.0003	0.0431	-0.0173	29.1020	102.5454	0
28.0000	0.0231	-0.0313	0.0502	0.0141	29.1020	102.5437	0
28.5000	0.0391	0.0318	0.0573	0.0141	29.1020	102.5454	0
29.0000	0.0234	-0.0313	0.0329	-0.0486	29.1020	102.5420	0
29.5000	0.0078	-0.0313	0.0243	-0.0173	29.1020	102.5454	0
30.0000	0.0710	0.1265	0.0471	0.0455	29.1020	102.5437	0
30.5000	0.0396	-0.0629	0.0541	0.0141	29.1020	102.5454	0
31.0000	-0.0234	-0.1260	0.0455	-0.0173	29.1020	102.5437	0
31.5000	0.0872	0.2212	0.0683	0.0455	29.1020	102.5437	0
32.0000	0.0715	-0.0313	0.0439	-0.0486	29.1012	102.5420	0
32.5000	0.0559	-0.0313	0.0667	0.0455	29.1012	102.5437	0
33.0000	0.0087	-0.0944	0.0424	-0.0486	29.1020	102.5437	0
33.5000	0.0246	0.0318	0.0337	-0.0173	29.1020	102.5454	0
34.0000	-0.0068	-0.0629	0.0251	-0.0173	29.1012	102.5437	0
34.5000	-0.0067	0.0003	0.0792	0.1083	29.1020	102.5403	0
35.0000	0.1197	0.2528	0.0549	-0.0486	29.1020	102.5454	0
35.5000	-0.0064	-0.2522	0.0149	-0.0800	29.1020	102.5454	0
36.0000	0.0726	0.1581	0.0690	0.1083	29.1020	102.5420	0
36.5000	0.0412	-0.0629	0.0604	-0.0173	29.1020	102.5454	0
37.0000	0.0413	0.0003	0.0361	-0.0486	29.1020	102.5420	0
37.5000	0.0572	0.0318	0.0902	0.1083	29.1020	102.5454	0
38.0000	0.0100	-0.0944	0.0816	-0.0173	29.1020	102.5437	0
38.5000	0.0575	0.0950	0.0573	-0.0486	29.1020	102.5454	0
39.0000	0.0576	0.0003	0.0643	0.0141	29.1012	102.5420	0
39.5000	0.0577	0.0003	0.0714	0.0141	29.1028	102.5437	0
40.0000	0.0579	0.0003	0.0628	-0.0173	29.1020	102.5454	0
40.5000	0.0738	0.0318	0.0698	0.0141	29.1020	102.5454	0
41.0000	0.0423	-0.0629	0.0455	-0.0486	29.1020	102.5437	0
41.5000	0.0425	0.0003	0.0839	0.0769	29.1012	102.5420	0
42.0000	0.0742	0.0634	0.0753	-0.0173	29.1020	102.5454	0
42.5000	0.0112	-0.1260	0.0510	-0.0486	29.1020	102.5454	0
43.0000	-0.0045	-0.0313	0.0267	-0.0486	29.1020	102.5437	0
43.5000	0.0430	0.0950	0.0651	0.0769	29.1020	102.5437	0
44.0000	0.0747	0.0634	0.0879	0.0455	29.1020	102.5420	0
44.5000	0.0433	-0.0629	0.0479	-0.0800	29.1020	102.5437	0
45.0000	-0.0197	-0.1260	0.0392	-0.0173	29.1012	102.5420	0
45.5000	0.0593	0.1581	0.0934	0.1083	29.1020	102.5403	0
46.0000	0.0752	0.0318	0.0847	-0.0173	29.1020	102.5420	0
46.5000	0.0754	0.0003	0.0761	-0.0173	29.1020	102.5437	0
47.0000	0.0597	-0.0313	0.0675	-0.0173	29.1020	102.5454	0
47.5000	0.0283	-0.0629	0.0588	-0.0173	29.1020	102.5437	0
48.0000	0.0442	0.0318	0.0659	0.0141	29.1020	102.5403	0
48.5000	0.0759	0.0634	0.0887	0.0455	29.1020	102.5403	0
49.0000	0.0129	-0.1260	0.0800	-0.0173	29.1020	102.5437	0
49.5000	0.0130	0.0003	0.0557	-0.0486	29.1020	102.5437	0
50.0000	0.0447	0.0634	0.0941	0.0769	29.1020	102.5420	0
50.5000	0.0606	0.0318	0.0855	-0.0173	29.1020	102.5437	0
51.0000	0.0923	0.0634	0.0612	-0.0486	29.1020	102.5454	0
51.5000	0.0609	-0.0629	0.0839	0.0455	29.1020	102.5437	0
52.0000	0.0137	-0.0944	0.0596	-0.0486	29.1020	102.5403	0
52.5000	0.0296	0.0318	0.0824	0.0455	29.1020	102.5420	0
53.0000	0.0613	0.0634	0.0737	-0.0173	29.1020	102.5437	0
53.5000	0.0299	-0.0629	0.0808	0.0141	29.1020	102.5420	0
54.0000	0.0458	0.0318	0.0251	-0.1114	29.1020	102.5437	0
54.5000	0.0775	0.0634	0.0949	0.1396	29.1020	102.5437	0
55.0000	0.0618	-0.0313	0.0863	-0.0173	29.1020	102.5454	0
55.5000	0.0777	0.0318	0.0777	-0.0173	29.1020	102.5437	0
56.0000	0.0621	-0.0313	0.1004	0.0455	29.1020	102.5454	0
56.5000	0.1253	0.1265	0.0918	-0.0173	29.1020	102.5454	0
57.0000	0.0150	-0.2207	0.0675	-0.0486	29.1028	102.5454	0
57.5000	0.0467	0.0634	0.0745	0.0141	29.1020	102.5420	0
58.0000	0.1099	0.1265	0.0973	0.0455	29.1020	102.5454	0
58.5000	0.0785	-0.0629	0.0887	-0.0173	29.1028	102.5420	0
59.0000	0.0786	0.0003	0.0800	-0.0173	29.1020	102.5454	0
59.5000	0.0314	-0.0944	0.0400	-0.0800	29.1020	102.5437	0
60.0000	0.0473	0.0318	0.0628	0.0455	29.1020	102.5420	0

============== new measurement ==============

Application version: 1.3.4.31615
Logging started: 8-27-2019 1:28 pm
PC Electrometer S/N: 96414013
Background compensation: YES, Background values: Input1: 0.126 pA, Input2: 0.111 pA
Input 1: Corrected Quantity Transform (pC/Count): 0.0157815, Laboratory Calibration:   1.0010
Input 2: Corrected Quantity Transform (pC/Count): 0.0156905, Laboratory Calibration:   1.0010
Bias Voltage: +300 V, Beam Type: Continuous
Detector1: none, S/N: none
Detector2: 2015-04-13 Exradin A16 XAA150584, S/N: none
Detector Factors: Input 2: Pion: 0.999100, Ppol: 1.000000, kQ: 1.000000, NDw: 5108000000.000000, Pt.p: 1.000000
Time[s]	Charge1[pC]	Curnt1[pA]	Charge2[pC]	Curnt2[pA]	Temp[C]	Press[kPa]	Pulses
0.5000	-0.0472	-0.0944	0.0071	0.0141	29.1096	102.5454	0
1.0000	-0.0155	0.0634	0.0298	0.0455	29.1112	102.5454	0
1.5000	-0.0312	-0.0313	0.0526	0.0455	29.1112	102.5454	0
2.0000	0.0005	0.0634	0.0282	-0.0486	29.1157	102.5420	0
2.5000	-0.0151	-0.0313	0.0039	-0.0486	29.1196	102.5471	0
3.0000	-0.0150	0.0003	0.0581	0.1083	29.1173	102.5420	0
3.5000	-0.0149	0.0003	0.0024	-0.1114	29.1112	102.5454	0
4.0000	-0.0305	-0.0313	0.0565	0.1083	29.1241	102.5454	0
4.5000	-0.0462	-0.0313	0.0165	-0.0800	29.1241	102.5437	0
5.0000	-0.0302	0.0318	0.0235	0.0141	29.1157	102.5403	0
5.5000	0.0330	0.1265	0.1090	0.1710	29.1104	102.5420	0
6.0000	-0.0615	-0.1891	0.0377	-0.1428	29.1150	102.5420	0
6.5000	-0.0141	0.0950	0.0290	-0.0173	29.1188	102.5454	0
7.0000	0.0018	0.0318	0.0361	0.0141	29.1188	102.5454	0
7.5000	0.0335	0.0634	0.0431	0.0141	29.1165	102.5454	0
8.0000	-0.0452	-0.1576	0.0345	-0.0173	29.1211	102.5437	0
8.5000	0.0180	0.1265	0.0573	0.0455	29.1196	102.5420	0
9.0000	-0.0608	-0.1576	-0.0141	-0.1428	29.1081	102.5437	0
9.5000	0.0025	0.1265	0.0400	0.1083	29.1188	102.5437	0
10.0000	-0.0447	-0.0944	0.0471	0.0141	29.1180	102.5437	0
10.5000	0.0028	0.0950	0.0071	-0.0800	29.1295	102.5420	0
11.0000	0.0029	0.0003	0.0612	0.1083	29.1173	102.5403	0
11.5000	-0.0128	-0.0313	0.0055	-0.1114	29.1196	102.5437	0
12.0000	-0.0126	0.0003	0.0596	0.1083	29.1218	102.5437	0
12.5000	-0.0441	-0.0629	0.0667	0.0141	29.1218	102.5420	0
13.0000	0.0192	0.1265	0.0581	-0.0173	29.1287	102.5454	0
13.5000	0.0193	0.0003	0.0024	-0.1114	29.1218	102.5420	0
14.0000	-0.0121	-0.0629	0.0408	0.0769	29.1142	102.5454	0
14.5000	-0.0120	0.0003	0.0322	-0.0173	29.1424	102.5454	0
15.0000	-0.0276	-0.0313	0.0706	0.0769	29.1264	102.5420	0
15.5000	0.0199	0.0950	0.0306	-0.0800	29.1371	102.5454	0
16.0000	0.0358	0.0318	0.0377	0.0141	29.1310	102.5420	0
16.5000	0.0201	-0.0313	0.0447	0.0141	29.1478	102.5454	0
17.0000	-0.0429	-0.1260	0.0518	0.0141	29.1333	102.5420	0
17.5000	-0.0112	0.0634	0.0588	0.0141	29.1264	102.5437	0
18.0000	-0.0110	0.0003	0.0031	-0.1114	29.1333	102.5420	0
18.5000	-0.0267	-0.0313	0.0416	0.0769	29.1371	102.5437	0
19.0000	-0.0108	0.0318	0.0643	0.0455	29.1333	102.5386	0
19.5000	-0.0107	0.0003	0.0557	-0.0173	29.1348	102.5420	0
20.0000	0.0368	0.0950	0.0471	-0.0173	29.1394	102.5454	0
20.5000	0.0212	-0.0313	0.0541	0.0141	29.1409	102.5437	0
21.0000	-0.0418	-0.1260	0.0141	-0.0800	29.1325	102.5454	0
21.5000	-0.0101	0.0634	0.0212	0.0141	29.1333	102.5454	0
22.0000	0.0058	0.0318	0.0596	0.0769	29.1341	102.5454	0
22.5000	-0.0414	-0.0944	0.0353	-0.0486	29.1363	102.5437	0
23.0000	0.0218	0.1265	0.0424	0.0141	29.1325	102.5437	0
23.5000	0.0062	-0.0313	0.0180	-0.0486	29.1417	102.5403	0
24.0000	-0.0095	-0.0313	0.0565	0.0769	29.1318	102.5437	0
24.5000	0.0064	0.0318	0.0479	-0.0173	29.1455	102.5454	0
25.0000	0.0066	0.0003	0.0235	-0.0486	29.1432	102.5420	0
25.5000	0.0383	0.0634	0.0620	0.0769	29.1432	102.5437	0
26.0000	-0.0089	-0.0944	0.0690	0.0141	29.1402	102.5403	0
26.5000	-0.0088	0.0003	0.0447	-0.0486	29.1363	102.5420	0
27.0000	-0.0087	0.0003	0.0361	-0.0173	29.1440	102.5403	0
27.5000	0.0072	0.0318	0.0745	0.0769	29.1394	102.5420	0
28.0000	-0.0242	-0.0629	0.0345	-0.0800	29.1447	102.5386	0
28.5000	-0.0083	0.0318	0.0730	0.0769	29.1417	102.5437	0
29.0000	-0.0555	-0.0944	0.0486	-0.0486	29.1386	102.5420	0
29.5000	0.0078	0.1265	0.0400	-0.0173	29.1394	102.5420	0
30.0000	0.0079	0.0003	0.0314	-0.0173	29.1432	102.5437	0
30.5000	-0.0235	-0.0629	0.0384	0.0141	29.1371	102.5437	0
31.0000	0.0397	0.1265	0.0612	0.0455	29.1394	102.5454	0
31.5000	0.0083	-0.0629	0.0839	0.0455	29.1463	102.5454	0
32.0000	-0.0074	-0.0313	0.0282	-0.1114	29.1424	102.5437	0
32.5000	0.0401	0.0950	0.0510	0.0455	29.1455	102.5454	0
33.0000	0.0087	-0.0629	0.0581	0.0141	29.1447	102.5437	0
33.5000	-0.0228	-0.0629	0.0494	-0.0173	29.1424	102.5420	0
34.0000	0.0089	0.0634	0.0408	-0.0173	29.1470	102.5420	0
34.5000	0.0564	0.0950	0.0479	0.0141	29.1440	102.5437	0
35.0000	0.0250	-0.0629	0.0706	0.0455	29.1432	102.5420	0
35.5000	-0.0064	-0.0629	0.0777	0.0141	29.1501	102.5454	0
36.0000	-0.0221	-0.0313	0.0690	-0.0173	29.1447	102.5403	0
36.5000	-0.0220	0.0003	0.0133	-0.1114	29.1447	102.5437	0
37.0000	-0.0218	0.0003	0.0832	0.1396	29.1440	102.5420	0
37.5000	0.0256	0.0950	0.0118	-0.1428	29.1470	102.5420	0
38.0000	0.0100	-0.0313	0.0502	0.0769	29.1440	102.5454	0
38.5000	0.0259	0.0318	0.0730	0.0455	29.1463	102.5420	0
39.0000	-0.0055	-0.0629	0.0486	-0.0486	29.1455	102.5403	0
39.5000	0.0420	0.0950	0.0714	0.0455	29.1470	102.5420	0
40.0000	-0.0210	-0.1260	0.0471	-0.0486	29.1440	102.5420	0
40.5000	0.0264	0.0950	0.0541	0.0141	29.1455	102.5420	0
41.0000	-0.0208	-0.0944	0.0769	0.0455	29.1455	102.5437	0
41.5000	-0.0364	-0.0313	0.0839	0.0141	29.1463	102.5437	0
42.0000	-0.0521	-0.0313	0.0753	-0.0173	29.1440	102.5420	0
42.5000	-0.0362	0.0318	0.0353	-0.0800	29.1455	102.5386	0
43.0000	0.0587	0.1896	0.0737	0.0769	29.1478	102.5420	0
43.5000	0.0430	-0.0313	0.0651	-0.0173	29.1455	102.5437	0
44.0000	-0.0358	-0.1576	0.0565	-0.0173	29.1455	102.5420	0
44.5000	0.0433	0.1581	0.0792	0.0455	29.1455	102.5403	0
45.0000	0.0434	0.0003	0.1177	0.0769	29.1493	102.5437	0
45.5000	-0.0038	-0.0944	0.0777	-0.0800	29.1440	102.5437	0
46.0000	0.0279	0.0634	0.1004	0.0455	29.1463	102.5403	0
46.5000	-0.0193	-0.0944	0.0604	-0.0800	29.1508	102.5454	0
47.0000	0.0281	0.0950	0.0675	0.0141	29.1470	102.5437	0
47.5000	0.0598	0.0634	0.1059	0.0769	29.1455	102.5454	0
48.0000	0.0284	-0.0629	0.1130	0.0141	29.1455	102.5420	0
48.5000	-0.0188	-0.0944	0.0887	-0.0486	29.1470	102.5403	0
49.0000	0.0287	0.0950	0.0800	-0.0173	29.1463	102.5420	0
49.5000	-0.0185	-0.0944	0.0714	-0.0173	29.1493	102.5454	0
50.0000	-0.0026	0.0318	0.0941	0.0455	29.1432	102.5403	0
50.5000	0.0448	0.0950	0.1012	0.0141	29.1508	102.5454	0
51.0000	0.0292	-0.0313	0.0926	-0.0173	29.1478	102.5420	0
51.5000	-0.0022	-0.0629	0.0839	-0.0173	29.1478	102.5437	0
52.0000	0.0137	0.0318	0.0753	-0.0173	29.1493	102.5454	0
52.5000	0.0296	0.0318	0.0196	-0.1114	29.1485	102.5454	0
53.0000	0.0455	0.0318	0.1051	0.1710	29.1501	102.5454	0
53.5000	0.0299	-0.0313	0.0808	-0.0486	29.1478	102.5454	0
54.0000	0.0458	0.0318	0.1036	0.0455	29.1508	102.5471	0
54.5000	0.0459	0.0003	0.0949	-0.0173	29.1424	102.5403	0
55.0000	-0.0171	-0.1260	0.1020	0.0141	29.1485	102.5437	0
55.5000	-0.0012	0.0318	0.0777	-0.0486	29.1455	102.5403	0
56.0000	-0.0011	0.0003	0.0690	-0.0173	29.1470	102.5403	0
56.5000	-0.0009	0.0003	0.0447	-0.0486	29.1447	102.5403	0
57.0000	0.0150	0.0318	0.0832	0.0769	29.1478	102.5386	0
57.5000	0.0151	0.0003	0.1059	0.0455	29.1493	102.5403	0
58.0000	0.0310	0.0318	0.1287	0.0455	29.1485	102.5403	0
58.5000	0.0470	0.0318	0.0887	-0.0800	29.1485	102.5420	0
59.0000	0.0313	-0.0313	0.0800	-0.0173	29.1508	102.5454	0
59.5000	-0.0159	-0.0944	0.0714	-0.0173	29.1485	102.5454	0
60.0000	0.0316	0.0950	0.0941	0.0455	29.1485	102.5386	0

============== new measurement ==============

Application version: 1.3.4.31615
Logging started: 8-27-2019 1:29 pm
PC Electrometer S/N: 96414013
Background compensation: YES, Background values: Input1: 0.126 pA, Input2: 0.111 pA
Input 1: Corrected Quantity Transform (pC/Count): 0.0157815, Laboratory Calibration:   1.0010
Input 2: Corrected Quantity Transform (pC/Count): 0.0156905, Laboratory Calibration:   1.0010
Bias Voltage: +300 V, Beam Type: Continuous
Detector1: 2018-05-21 Exradin A16 XAA181344, S/N: XAA181344
Detector2: 2015-04-13 Exradin A16 XAA150584, S/N: XAA150584
Detector Factors: Input 1: Pion: 1.000000, Ppol: 1.000000, kQ: 1.000000, NDw: 4221000000.000000, Pt.p: 1.000000
Detector Factors: Input 2: Pion: 0.999100, Ppol: 1.000000, kQ: 1.000000, NDw: 5108000000.000000, Pt.p: 1.000000
Time[s]	Charge1[pC]	Curnt1[pA]	Charge2[pC]	Curnt2[pA]	Temp[C]	Press[kPa]	Pulses
0.5000	-0.0788	-0.1576	0.0071	0.0141	29.1493	102.5420	0
1.0000	-0.0471	0.0634	-0.0016	-0.0173	29.1493	102.5420	0
1.5000	-0.0470	0.0003	-0.0259	-0.0486	29.1501	102.5471	0
2.0000	-0.0942	-0.0944	0.0126	0.0769	29.1485	102.5420	0
2.5000	-0.0309	0.1265	0.0353	0.0455	29.1493	102.5420	0
3.0000	-0.0781	-0.0944	0.0267	-0.0173	29.1501	102.5437	0
3.5000	-0.0149	0.1265	0.0024	-0.0486	29.1493	102.5437	0
4.0000	-0.0463	-0.0629	0.0251	0.0455	29.1508	102.5454	0
4.5000	-0.0304	0.0318	0.0165	-0.0173	29.1493	102.5403	0
5.0000	0.0171	0.0950	0.0392	0.0455	29.1501	102.5420	0
5.5000	-0.0301	-0.0944	0.0149	-0.0486	29.1493	102.5437	0
6.0000	-0.0615	-0.0629	0.0533	0.0769	29.1485	102.5420	0
6.5000	-0.0141	0.0950	0.0447	-0.0173	29.1493	102.5420	0
7.0000	-0.0613	-0.0944	-0.0267	-0.1428	29.1485	102.5437	0
7.5000	0.0020	0.1265	0.0431	0.1396	29.1501	102.5403	0
8.0000	-0.0610	-0.1260	0.0188	-0.0486	29.1508	102.5454	0
8.5000	-0.0609	0.0003	-0.0212	-0.0800	29.1501	102.5403	0
9.0000	-0.0608	0.0003	0.0173	0.0769	29.1501	102.5420	0
9.5000	-0.0291	0.0634	0.0400	0.0455	29.1501	102.5403	0
10.0000	-0.0921	-0.1260	0.0157	-0.0486	29.1493	102.5403	0
10.5000	-0.0130	0.1581	0.0228	0.0141	29.1501	102.5403	0
11.0000	-0.0287	-0.0313	0.0141	-0.0173	29.1485	102.5437	0
11.5000	-0.0128	0.0318	0.0526	0.0769	29.1493	102.5420	0
12.0000	-0.0126	0.0003	0.0439	-0.0173	29.1493	102.5437	0
12.5000	-0.0914	-0.1576	0.0353	-0.0173	29.1501	102.5420	0
13.0000	-0.0124	0.1581	0.0581	0.0455	29.1501	102.5420	0
13.5000	0.0036	0.0318	0.0180	-0.0800	29.1493	102.5420	0
14.0000	-0.0279	-0.0629	0.0251	0.0141	29.1501	102.5420	0
14.5000	-0.0277	0.0003	0.0322	0.0141	29.1493	102.5420	0
15.0000	-0.0276	0.0003	0.0863	0.1083	29.1493	102.5420	0
15.5000	0.0199	0.0950	0.0620	-0.0486	29.1493	102.5437	0
16.0000	-0.0274	-0.0944	0.0533	-0.0173	29.1508	102.5454	0
16.5000	-0.0588	-0.0629	0.0133	-0.0800	29.1508	102.5454	0
17.0000	-0.0429	0.0318	0.0047	-0.0173	29.1501	102.5437	0
17.5000	-0.0112	0.0634	0.0431	0.0769	29.1501	102.5420	0
18.0000	-0.0426	-0.0629	0.0031	-0.0800	29.1493	102.5437	0
18.5000	-0.0425	0.0003	0.0416	0.0769	29.1493	102.5437	0
19.0000	0.0208	0.1265	0.0329	-0.0173	29.1501	102.5437	0
19.5000	-0.0264	-0.0944	0.0400	0.0141	29.1501	102.5420	0
20.0000	-0.0263	0.0003	0.0471	0.0141	29.1508	102.5437	0
20.5000	-0.0577	-0.0629	0.0541	0.0141	29.1501	102.5403	0
21.0000	-0.0418	0.0318	0.0455	-0.0173	29.1493	102.5403	0
21.5000	-0.0101	0.0634	0.0526	0.0141	29.1508	102.5454	0
22.0000	-0.0416	-0.0629	-0.0345	-0.1742	29.1501	102.5437	0
22.5000	0.0059	0.0950	0.0196	0.1083	29.1508	102.5454	0
23.0000	-0.0097	-0.0313	0.0581	0.0769	29.1508	102.5454	0
23.5000	-0.0254	-0.0313	0.0337	-0.0486	29.1501	102.5437	0
24.0000	0.0063	0.0634	0.0565	0.0455	29.1493	102.5420	0
24.5000	0.0380	0.0634	0.0792	0.0455	29.1501	102.5403	0
25.0000	0.0381	0.0003	0.0549	-0.0486	29.1485	102.5420	0
25.5000	0.0225	-0.0313	0.0777	0.0455	29.1501	102.5420	0
26.0000	-0.0563	-0.1576	0.0533	-0.0486	29.1508	102.5454	0
26.5000	-0.0404	0.0318	0.0447	-0.0173	29.1508	102.5454	0
27.0000	0.0071	0.0950	0.0832	0.0769	29.1501	102.5437	0
27.5000	-0.0243	-0.0629	0.0118	-0.1428	29.1501	102.5420	0
28.0000	-0.0558	-0.0629	0.0659	0.1083	29.1501	102.5437	0
28.5000	0.0075	0.1265	0.0730	0.0141	29.1501	102.5420	0
29.0000	0.0076	0.0003	0.0486	-0.0486	29.1501	102.5437	0
29.5000	0.0078	0.0003	0.0871	0.0769	29.1501	102.5420	0
30.0000	0.0079	0.0003	0.0471	-0.0800	29.1501	102.5403	0
30.5000	0.0396	0.0634	0.0698	0.0455	29.1501	102.5420	0
31.0000	-0.0076	-0.0944	0.0769	0.0141	29.1508	102.5454	0
31.5000	0.0083	0.0318	0.0369	-0.0800	29.1508	102.5454	0
32.0000	-0.0389	-0.0944	0.0596	0.0455	29.1501	102.5420	0
32.5000	0.0243	0.1265	0.0510	-0.0173	29.1508	102.5454	0
33.0000	-0.0071	-0.0629	0.0267	-0.0486	29.1501	102.5403	0
33.5000	-0.0070	0.0003	0.0808	0.1083	29.1501	102.5454	0
34.0000	0.0089	0.0318	0.0722	-0.0173	29.1508	102.5420	0
34.5000	0.0091	0.0003	0.0635	-0.0173	29.1501	102.5420	0
35.0000	0.0092	0.0003	0.0706	0.0141	29.1501	102.5437	0
35.5000	-0.0222	-0.0629	0.0934	0.0455	29.1501	102.5420	0
36.0000	0.0726	0.1896	0.1004	0.0141	29.1508	102.5437	0
36.5000	0.0569	-0.0313	0.0761	-0.0486	29.1501	102.5420	0
37.0000	-0.0218	-0.1576	0.1145	0.0769	29.1508	102.5437	0
37.5000	0.0256	0.0950	0.0745	-0.0800	29.1501	102.5420	0
38.0000	-0.0216	-0.0944	0.0816	0.0141	29.1501	102.5420	0
38.5000	-0.0530	-0.0629	0.0416	-0.0800	29.1501	102.5437	0
39.0000	0.0260	0.1581	0.0800	0.0769	29.1508	102.5454	0
39.5000	-0.0212	-0.0944	0.1185	0.0769	29.1501	102.5403	0
40.0000	-0.0053	0.0318	0.0941	-0.0486	29.1501	102.5420	0
40.5000	-0.0209	-0.0313	0.1326	0.0769	29.1508	102.5403	0
41.0000	-0.0366	-0.0313	0.0769	-0.1114	29.1501	102.5420	0
41.5000	0.0267	0.1265	0.0839	0.0141	29.1501	102.5420	0
42.0000	0.0110	-0.0313	0.0910	0.0141	29.1508	102.5454	0
42.5000	-0.0046	-0.0313	0.0824	-0.0173	29.1508	102.5437	0
43.0000	-0.0045	0.0003	0.0894	0.0141	29.1508	102.5437	0
43.5000	0.0430	0.0950	0.1436	0.1083	29.1501	102.5420	0
44.0000	-0.0516	-0.1891	0.1036	-0.0800	29.1508	102.5454	0
44.5000	0.0275	0.1581	0.1106	0.0141	29.1501	102.5420	0
45.0000	0.0118	-0.0313	0.0706	-0.0800	29.1508	102.5454	0
45.5000	0.0277	0.0318	0.1247	0.1083	29.1516	102.5437	0
46.0000	0.0279	0.0003	0.1318	0.0141	29.1508	102.5420	0
46.5000	-0.0193	-0.0944	0.0761	-0.1114	29.1508	102.5437	0
47.0000	0.0124	0.0634	0.0675	-0.0173	29.1508	102.5437	0
47.5000	-0.0033	-0.0313	0.0902	0.0455	29.1508	102.5454	0
48.0000	0.0284	0.0634	0.0659	-0.0486	29.1508	102.5437	0
48.5000	0.0443	0.0318	0.0887	0.0455	29.1508	102.5454	0
49.0000	0.0287	-0.0313	0.0800	-0.0173	29.1508	102.5437	0
49.5000	-0.0028	-0.0629	0.0871	0.0141	29.1501	102.5403	0
50.0000	0.0132	0.0318	0.0941	0.0141	29.1508	102.5437	0
50.5000	-0.0025	-0.0313	0.0698	-0.0486	29.1508	102.5403	0
51.0000	0.0292	0.0634	0.0769	0.0141	29.1508	102.5437	0
51.5000	-0.0022	-0.0629	0.1467	0.1396	29.1508	102.5403	0
52.0000	-0.0179	-0.0313	0.0910	-0.1114	29.1508	102.5454	0
52.5000	-0.0020	0.0318	0.0824	-0.0173	29.1508	102.5420	0
53.0000	0.0297	0.0634	0.1051	0.0455	29.1508	102.5454	0
53.5000	0.0456	0.0318	0.1279	0.0455	29.1508	102.5437	0
54.0000	0.0458	0.0003	0.1036	-0.0486	29.1508	102.5437	0
54.5000	0.0459	0.0003	0.0949	-0.0173	29.1508	102.5454	0
55.0000	0.0145	-0.0629	0.0863	-0.0173	29.1516	102.5403	0
55.5000	0.0304	0.0318	0.0934	0.0141	29.1508	102.5454	0
56.0000	0.0305	0.0003	0.0847	-0.0173	29.1508	102.5420	0
56.5000	0.0306	0.0003	0.1232	0.0769	29.1501	102.5420	0
57.0000	0.0623	0.0634	0.1302	0.0141	29.1508	102.5420	0
57.5000	0.0467	-0.0313	0.1216	-0.0173	29.1501	102.5420	0
58.0000	0.0153	-0.0629	0.0973	-0.0486	29.1501	102.5437	0
58.5000	0.0154	0.0003	0.1200	0.0455	29.1508	102.5420	0
59.0000	-0.0003	-0.0313	0.0957	-0.0486	29.1508	102.5403	0
59.5000	0.0314	0.0634	0.1028	0.0141	29.1516	102.5437	0
60.0000	0.0473	0.0318	0.1098	0.0141	29.1508	102.5454	0
